Time,header.seq,header.stamp.secs,header.stamp.nsecs,header.frame_id,imu.header.seq,imu.header.stamp.secs,imu.header.stamp.nsecs,imu.header.frame_id,imu.orientation.x,imu.orientation.y,imu.orientation.z,imu.orientation.w,imu.orientation_covariance,imu.angular_velocity.x,imu.angular_velocity.y,imu.angular_velocity.z,imu.angular_velocity_covariance,imu.linear_acceleration.x,imu.linear_acceleration.y,imu.linear_acceleration.z,imu.linear_acceleration_covariance,mag_field.header.seq,mag_field.header.stamp.secs,mag_field.header.stamp.nsecs,mag_field.header.frame_id,mag_field.magnetic_field.x,mag_field.magnetic_field.y,mag_field.magnetic_field.z,mag_field.magnetic_field_covariance,imu_read
1711824202.804603,1,1711824202,797421455,imu1_frame,1,1711824202,797421455,imu1_frame,0.41286588,-0.22441884,0.85918897,0.20241608,"(0.0, 0.0, 0.0, 0.0, 0.0, 0.0, 0.0, 0.0, 0.0)",0.001587,0.000932,-0.002757,"(0.0, 0.0, 0.0, 0.0, 0.0, 0.0, 0.0, 0.0, 0.0)",-1.238,-0.04,-9.845,"(0.0, 0.0, 0.0, 0.0, 0.0, 0.0, 0.0, 0.0, 0.0)",1,1711824202,797421455,imu1_frame,-1.231e-05,5.4000000000000005e-05,3.3639999999999996e-05,"(0.0, 0.0, 0.0, 0.0, 0.0, 0.0, 0.0, 0.0, 0.0)","$VNYMR,+134.814,-007.211,-000.373,-00.1231,+00.5400,+00.3364,-01.238,-00.040,-09.845,+00.001587,+00.000932,-00.002757*6B"
1711824202.8476748,2,1711824202,841392993,imu1_frame,2,1711824202,841392993,imu1_frame,0.41309009,-0.22400586,0.85939095,0.20155679,"(0.0, 0.0, 0.0, 0.0, 0.0, 0.0, 0.0, 0.0, 0.0)",0.000771,0.000179,-0.000146,"(0.0, 0.0, 0.0, 0.0, 0.0, 0.0, 0.0, 0.0, 0.0)",-1.265,-0.157,-9.864,"(0.0, 0.0, 0.0, 0.0, 0.0, 0.0, 0.0, 0.0, 0.0)",2,1711824202,841392993,imu1_frame,-1.2839999999999999e-05,5.389000000000001e-05,3.299e-05,"(0.0, 0.0, 0.0, 0.0, 0.0, 0.0, 0.0, 0.0, 0.0)","$VNYMR,+134.816,-007.211,-000.373,-00.1284,+00.5389,+00.3299,-01.265,-00.157,-09.864,+00.000771,+00.000179,-00.000146*67"
1711824202.8999968,3,1711824202,893364429,imu1_frame,3,1711824202,893364429,imu1_frame,0.41320204,-0.22379929,0.85949162,0.20112707,"(0.0, 0.0, 0.0, 0.0, 0.0, 0.0, 0.0, 0.0, 0.0)",0.000377,-0.000679,-0.000141,"(0.0, 0.0, 0.0, 0.0, 0.0, 0.0, 0.0, 0.0, 0.0)",-1.299,0.031,-9.855,"(0.0, 0.0, 0.0, 0.0, 0.0, 0.0, 0.0, 0.0, 0.0)",3,1711824202,893364429,imu1_frame,-1.261e-05,5.457e-05,3.261e-05,"(0.0, 0.0, 0.0, 0.0, 0.0, 0.0, 0.0, 0.0, 0.0)","$VNYMR,+134.817,-007.211,-000.373,-00.1261,+00.5457,+00.3261,-01.299,+00.031,-09.855,+00.000377,-00.000679,-00.000141*6C"
1711824202.947495,4,1711824202,941280364,imu1_frame,4,1711824202,941280364,imu1_frame,0.41197909,-0.22331384,0.86028955,0.20076369,"(0.0, 0.0, 0.0, 0.0, 0.0, 0.0, 0.0, 0.0, 0.0)",0.002259,0.004713,-0.0066,"(0.0, 0.0, 0.0, 0.0, 0.0, 0.0, 0.0, 0.0, 0.0)",-1.635,0.413,-10.44,"(0.0, 0.0, 0.0, 0.0, 0.0, 0.0, 0.0, 0.0, 0.0)",4,1711824202,941280364,imu1_frame,-1.2509999999999999e-05,5.4340000000000005e-05,3.325e-05,"(0.0, 0.0, 0.0, 0.0, 0.0, 0.0, 0.0, 0.0, 0.0)","$VNYMR,+134.817,-007.208,-000.372,-00.1251,+00.5434,+00.3325,-01.635,+00.413,-10.440,+00.002259,+00.004713,-00.006600*60"
1711824203.0021975,5,1711824202,993378639,imu1_frame,5,1711824202,993378639,imu1_frame,0.41156076,-0.22374413,0.86049479,0.20026238,"(0.0, 0.0, 0.0, 0.0, 0.0, 0.0, 0.0, 0.0, 0.0)",0.005078,-0.001391,-0.003515,"(0.0, 0.0, 0.0, 0.0, 0.0, 0.0, 0.0, 0.0, 0.0)",-1.069,0.555,-9.612,"(0.0, 0.0, 0.0, 0.0, 0.0, 0.0, 0.0, 0.0, 0.0)",5,1711824202,993378639,imu1_frame,-1.2620000000000001e-05,5.423e-05,3.223e-05,"(0.0, 0.0, 0.0, 0.0, 0.0, 0.0, 0.0, 0.0, 0.0)","$VNYMR,+134.819,-007.207,-000.374,-00.1262,+00.5423,+00.3223,-01.069,+00.555,-09.612,+00.005078,-00.001391,-00.003515*6E"
1711824203.0521405,6,1711824203,45432806,imu1_frame,6,1711824203,45432806,imu1_frame,0.40815031,-0.22362119,0.86240071,0.19917807,"(0.0, 0.0, 0.0, 0.0, 0.0, 0.0, 0.0, 0.0, 0.0)",0.001176,0.00321,-0.00143,"(0.0, 0.0, 0.0, 0.0, 0.0, 0.0, 0.0, 0.0, 0.0)",-1.111,0.15,-9.741,"(0.0, 0.0, 0.0, 0.0, 0.0, 0.0, 0.0, 0.0, 0.0)",6,1711824203,45432806,imu1_frame,-1.2720000000000002e-05,5.4579999999999996e-05,3.299e-05,"(0.0, 0.0, 0.0, 0.0, 0.0, 0.0, 0.0, 0.0, 0.0)","$VNYMR,+134.821,-007.199,-000.375,-00.1272,+00.5458,+00.3299,-01.111,+00.150,-09.741,+00.001176,+00.003210,-00.001430*67"
1711824203.0997093,7,1711824203,93415498,imu1_frame,7,1711824203,93415498,imu1_frame,0.40149531,-0.22229228,0.86640274,0.19680943,"(0.0, 0.0, 0.0, 0.0, 0.0, 0.0, 0.0, 0.0, 0.0)",0.000891,0.005901,0.000649,"(0.0, 0.0, 0.0, 0.0, 0.0, 0.0, 0.0, 0.0, 0.0)",-0.988,0.174,-9.754,"(0.0, 0.0, 0.0, 0.0, 0.0, 0.0, 0.0, 0.0, 0.0)",7,1711824203,93415498,imu1_frame,-1.2509999999999999e-05,5.4340000000000005e-05,3.299e-05,"(0.0, 0.0, 0.0, 0.0, 0.0, 0.0, 0.0, 0.0, 0.0)","$VNYMR,+134.824,-007.183,-000.374,-00.1251,+00.5434,+00.3299,-00.988,+00.174,-09.754,+00.000891,+00.005901,+00.000649*6F"
1711824203.1466362,8,1711824203,141799449,imu1_frame,8,1711824203,141799449,imu1_frame,0.39455917,-0.22007674,0.87078329,0.19397359,"(0.0, 0.0, 0.0, 0.0, 0.0, 0.0, 0.0, 0.0, 0.0)",-0.00128,0.005089,0.000825,"(0.0, 0.0, 0.0, 0.0, 0.0, 0.0, 0.0, 0.0, 0.0)",-1.003,-0.403,-9.712,"(0.0, 0.0, 0.0, 0.0, 0.0, 0.0, 0.0, 0.0, 0.0)",8,1711824203,141799449,imu1_frame,-1.24e-05,5.468e-05,3.337e-05,"(0.0, 0.0, 0.0, 0.0, 0.0, 0.0, 0.0, 0.0, 0.0)","$VNYMR,+134.827,-007.166,-000.371,-00.1240,+00.5468,+00.3337,-01.003,-00.403,-09.712,-00.001280,+00.005089,+00.000825*64"
1711824203.200119,9,1711824203,193340778,imu1_frame,9,1711824203,193340778,imu1_frame,0.38649875,-0.2186914,0.87530316,0.19140839,"(0.0, 0.0, 0.0, 0.0, 0.0, 0.0, 0.0, 0.0, 0.0)",0.001038,0.005656,0.001982,"(0.0, 0.0, 0.0, 0.0, 0.0, 0.0, 0.0, 0.0, 0.0)",-1.054,0.02,-9.904,"(0.0, 0.0, 0.0, 0.0, 0.0, 0.0, 0.0, 0.0, 0.0)",9,1711824203,193340778,imu1_frame,-1.2509999999999999e-05,5.4340000000000005e-05,3.299e-05,"(0.0, 0.0, 0.0, 0.0, 0.0, 0.0, 0.0, 0.0, 0.0)","$VNYMR,+134.830,-007.147,-000.370,-00.1251,+00.5434,+00.3299,-01.054,+00.020,-09.904,+00.001038,+00.005656,+00.001982*6A"
1711824203.2473888,10,1711824203,241351604,imu1_frame,10,1711824203,241351604,imu1_frame,0.37989763,-0.2184545,0.87858121,0.18986966,"(0.0, 0.0, 0.0, 0.0, 0.0, 0.0, 0.0, 0.0, 0.0)",0.000111,0.005429,-0.000627,"(0.0, 0.0, 0.0, 0.0, 0.0, 0.0, 0.0, 0.0, 0.0)",-1.063,-0.032,-9.965,"(0.0, 0.0, 0.0, 0.0, 0.0, 0.0, 0.0, 0.0, 0.0)",10,1711824203,241351604,imu1_frame,-1.2509999999999999e-05,5.457e-05,3.299e-05,"(0.0, 0.0, 0.0, 0.0, 0.0, 0.0, 0.0, 0.0, 0.0)","$VNYMR,+134.832,-007.132,-000.371,-00.1251,+00.5457,+00.3299,-01.063,-00.032,-09.965,+00.000111,+00.005429,-00.000627*6E"
1711824203.3015409,11,1711824203,297422647,imu1_frame,11,1711824203,297422647,imu1_frame,0.37530817,-0.21869598,0.88057542,0.18948028,"(0.0, 0.0, 0.0, 0.0, 0.0, 0.0, 0.0, 0.0, 0.0)",0.000669,0.003111,-0.000249,"(0.0, 0.0, 0.0, 0.0, 0.0, 0.0, 0.0, 0.0, 0.0)",-1.116,0.009,-9.959,"(0.0, 0.0, 0.0, 0.0, 0.0, 0.0, 0.0, 0.0, 0.0)",11,1711824203,297422647,imu1_frame,-1.231e-05,5.411e-05,3.402e-05,"(0.0, 0.0, 0.0, 0.0, 0.0, 0.0, 0.0, 0.0, 0.0)","$VNYMR,+134.832,-007.122,-000.372,-00.1231,+00.5411,+00.3402,-01.116,+00.009,-09.959,+00.000669,+00.003111,-00.000249*62"
1711824203.3521857,12,1711824203,345342159,imu1_frame,12,1711824203,345342159,imu1_frame,0.37389338,-0.21958335,0.88106267,0.18898533,"(0.0, 0.0, 0.0, 0.0, 0.0, 0.0, 0.0, 0.0, 0.0)",-0.001277,-0.000446,-5.2e-05,"(0.0, 0.0, 0.0, 0.0, 0.0, 0.0, 0.0, 0.0, 0.0)",-1.154,0.129,-9.954,"(0.0, 0.0, 0.0, 0.0, 0.0, 0.0, 0.0, 0.0, 0.0)",12,1711824203,345342159,imu1_frame,-1.252e-05,5.4120000000000004e-05,3.376e-05,"(0.0, 0.0, 0.0, 0.0, 0.0, 0.0, 0.0, 0.0, 0.0)","$VNYMR,+134.834,-007.119,-000.375,-00.1252,+00.5412,+00.3376,-01.154,+00.129,-09.954,-00.001277,-00.000446,-00.000052*67"
1711824203.3969152,13,1711824203,389390230,imu1_frame,13,1711824203,389390230,imu1_frame,0.37583414,-0.21997734,0.88028996,0.1882771,"(0.0, 0.0, 0.0, 0.0, 0.0, 0.0, 0.0, 0.0, 0.0)",-0.002696,-0.001792,0.00215,"(0.0, 0.0, 0.0, 0.0, 0.0, 0.0, 0.0, 0.0, 0.0)",-1.2,0.046,-10.045,"(0.0, 0.0, 0.0, 0.0, 0.0, 0.0, 0.0, 0.0, 0.0)",13,1711824203,389390230,imu1_frame,-1.2509999999999999e-05,5.423e-05,3.287e-05,"(0.0, 0.0, 0.0, 0.0, 0.0, 0.0, 0.0, 0.0, 0.0)","$VNYMR,+134.837,-007.123,-000.377,-00.1251,+00.5423,+00.3287,-01.200,+00.046,-10.045,-00.002696,-00.001792,+00.002150*6E"
1711824203.4719481,14,1711824203,465422868,imu1_frame,14,1711824203,465422868,imu1_frame,0.38174139,-0.21874333,0.8782633,0.18729241,"(0.0, 0.0, 0.0, 0.0, 0.0, 0.0, 0.0, 0.0, 0.0)",-0.001336,-0.002618,0.000537,"(0.0, 0.0, 0.0, 0.0, 0.0, 0.0, 0.0, 0.0, 0.0)",-1.14,0.082,-9.87,"(0.0, 0.0, 0.0, 0.0, 0.0, 0.0, 0.0, 0.0, 0.0)",14,1711824203,465422868,imu1_frame,-1.263e-05,5.4000000000000005e-05,3.312e-05,"(0.0, 0.0, 0.0, 0.0, 0.0, 0.0, 0.0, 0.0, 0.0)","$VNYMR,+134.840,-007.135,-000.375,-00.1263,+00.5400,+00.3312,-01.140,+00.082,-09.870,-00.001336,-00.002618,+00.000537*64"
1711824203.523014,15,1711824203,517386198,imu1_frame,15,1711824203,517386198,imu1_frame,0.38435798,-0.21707394,0.87763692,0.18681883,"(0.0, 0.0, 0.0, 0.0, 0.0, 0.0, 0.0, 0.0, 0.0)",6.2e-05,-0.000676,0.001613,"(0.0, 0.0, 0.0, 0.0, 0.0, 0.0, 0.0, 0.0, 0.0)",-1.136,0.031,-9.867,"(0.0, 0.0, 0.0, 0.0, 0.0, 0.0, 0.0, 0.0, 0.0)",15,1711824203,517386198,imu1_frame,-1.271e-05,5.492e-05,3.2850000000000006e-05,"(0.0, 0.0, 0.0, 0.0, 0.0, 0.0, 0.0, 0.0, 0.0)","$VNYMR,+134.840,-007.140,-000.371,-00.1271,+00.5492,+00.3285,-01.136,+00.031,-09.867,+00.000062,-00.000676,+00.001613*61"
1711824203.5743117,16,1711824203,569463729,imu1_frame,16,1711824203,569463729,imu1_frame,0.38545612,-0.21647726,0.87741225,0.18630329,"(0.0, 0.0, 0.0, 0.0, 0.0, 0.0, 0.0, 0.0, 0.0)",0.00068,-0.001434,-9.5e-05,"(0.0, 0.0, 0.0, 0.0, 0.0, 0.0, 0.0, 0.0, 0.0)",-1.121,-0.022,-9.883,"(0.0, 0.0, 0.0, 0.0, 0.0, 0.0, 0.0, 0.0, 0.0)",16,1711824203,569463729,imu1_frame,-1.281e-05,5.515e-05,3.3350000000000004e-05,"(0.0, 0.0, 0.0, 0.0, 0.0, 0.0, 0.0, 0.0, 0.0)","$VNYMR,+134.841,-007.142,-000.370,-00.1281,+00.5515,+00.3335,-01.121,-00.022,-09.883,+00.000680,-00.001434,-00.000095*60"
1711824203.618853,17,1711824203,613338708,imu1_frame,17,1711824203,613338708,imu1_frame,0.38604248,-0.21433607,0.87802855,0.18465407,"(0.0, 0.0, 0.0, 0.0, 0.0, 0.0, 0.0, 0.0, 0.0)",-0.003823,0.001838,0.002136,"(0.0, 0.0, 0.0, 0.0, 0.0, 0.0, 0.0, 0.0, 0.0)",-1.815,0.318,-9.49,"(0.0, 0.0, 0.0, 0.0, 0.0, 0.0, 0.0, 0.0, 0.0)",17,1711824203,613338708,imu1_frame,-1.252e-05,5.423e-05,3.338e-05,"(0.0, 0.0, 0.0, 0.0, 0.0, 0.0, 0.0, 0.0, 0.0)","$VNYMR,+134.843,-007.142,-000.366,-00.1252,+00.5423,+00.3338,-01.815,+00.318,-09.490,-00.003823,+00.001838,+00.002136*66"
1711824203.6956522,18,1711824203,689379930,imu1_frame,18,1711824203,689379930,imu1_frame,0.38465107,-0.2154646,0.87851396,0.18393418,"(0.0, 0.0, 0.0, 0.0, 0.0, 0.0, 0.0, 0.0, 0.0)",0.001144,0.002065,1.4e-05,"(0.0, 0.0, 0.0, 0.0, 0.0, 0.0, 0.0, 0.0, 0.0)",-1.154,0.123,-9.816,"(0.0, 0.0, 0.0, 0.0, 0.0, 0.0, 0.0, 0.0, 0.0)",18,1711824203,689379930,imu1_frame,-1.273e-05,5.4120000000000004e-05,3.312e-05,"(0.0, 0.0, 0.0, 0.0, 0.0, 0.0, 0.0, 0.0, 0.0)","$VNYMR,+134.846,-007.139,-000.370,-00.1273,+00.5412,+00.3312,-01.154,+00.123,-09.816,+00.001144,+00.002065,+00.000014*69"
1711824203.748531,19,1711824203,741409063,imu1_frame,19,1711824203,741409063,imu1_frame,0.38486634,-0.21507984,0.87869745,0.18305558,"(0.0, 0.0, 0.0, 0.0, 0.0, 0.0, 0.0, 0.0, 0.0)",0.001119,-0.005833,0.000999,"(0.0, 0.0, 0.0, 0.0, 0.0, 0.0, 0.0, 0.0, 0.0)",-0.963,0.425,-9.46,"(0.0, 0.0, 0.0, 0.0, 0.0, 0.0, 0.0, 0.0, 0.0)",19,1711824203,741409063,imu1_frame,-1.273e-05,5.4010000000000006e-05,3.261e-05,"(0.0, 0.0, 0.0, 0.0, 0.0, 0.0, 0.0, 0.0, 0.0)","$VNYMR,+134.848,-007.139,-000.370,-00.1273,+00.5401,+00.3261,-00.963,+00.425,-09.460,+00.001119,-00.005833,+00.000999*6D"
1711824203.799065,20,1711824203,793309688,imu1_frame,20,1711824203,793309688,imu1_frame,0.38262262,-0.21500044,0.87975725,0.18276194,"(0.0, 0.0, 0.0, 0.0, 0.0, 0.0, 0.0, 0.0, 0.0)",0.001408,0.000757,0.000895,"(0.0, 0.0, 0.0, 0.0, 0.0, 0.0, 0.0, 0.0, 0.0)",-1.324,0.072,-9.824,"(0.0, 0.0, 0.0, 0.0, 0.0, 0.0, 0.0, 0.0, 0.0)",20,1711824203,793309688,imu1_frame,-1.261e-05,5.4579999999999996e-05,3.375000000000001e-05,"(0.0, 0.0, 0.0, 0.0, 0.0, 0.0, 0.0, 0.0, 0.0)","$VNYMR,+134.848,-007.134,-000.370,-00.1261,+00.5458,+00.3375,-01.324,+00.072,-09.824,+00.001408,+00.000757,+00.000895*6F"
1711824203.8433588,21,1711824203,837328195,imu1_frame,21,1711824203,837328195,imu1_frame,0.38325419,-0.21413677,0.87976031,0.1824376,"(0.0, 0.0, 0.0, 0.0, 0.0, 0.0, 0.0, 0.0, 0.0)",-0.0004,0.000272,0.000288,"(0.0, 0.0, 0.0, 0.0, 0.0, 0.0, 0.0, 0.0, 0.0)",-1.314,0.012,-9.981,"(0.0, 0.0, 0.0, 0.0, 0.0, 0.0, 0.0, 0.0, 0.0)",21,1711824203,837328195,imu1_frame,-1.2509999999999999e-05,5.446e-05,3.363e-05,"(0.0, 0.0, 0.0, 0.0, 0.0, 0.0, 0.0, 0.0, 0.0)","$VNYMR,+134.848,-007.135,-000.368,-00.1251,+00.5446,+00.3363,-01.314,+00.012,-09.981,-00.000400,+00.000272,+00.000288*6C"
1711824203.9236882,22,1711824203,917409420,imu1_frame,22,1711824203,917409420,imu1_frame,0.38408277,-0.21264134,0.87995967,0.1814802,"(0.0, 0.0, 0.0, 0.0, 0.0, 0.0, 0.0, 0.0, 0.0)",0.001401,-0.002133,-0.000396,"(0.0, 0.0, 0.0, 0.0, 0.0, 0.0, 0.0, 0.0, 0.0)",-1.294,0.043,-9.823,"(0.0, 0.0, 0.0, 0.0, 0.0, 0.0, 0.0, 0.0, 0.0)",22,1711824203,917409420,imu1_frame,-1.283e-05,5.435e-05,3.222e-05,"(0.0, 0.0, 0.0, 0.0, 0.0, 0.0, 0.0, 0.0, 0.0)","$VNYMR,+134.849,-007.136,-000.365,-00.1283,+00.5435,+00.3222,-01.294,+00.043,-09.823,+00.001401,-00.002133,-00.000396*64"
1711824203.9719393,23,1711824203,965421915,imu1_frame,23,1711824203,965421915,imu1_frame,0.38582225,-0.2114246,0.87971642,0.18038805,"(0.0, 0.0, 0.0, 0.0, 0.0, 0.0, 0.0, 0.0, 0.0)",0.000998,-0.001639,0.000158,"(0.0, 0.0, 0.0, 0.0, 0.0, 0.0, 0.0, 0.0, 0.0)",-1.287,0.029,-9.807,"(0.0, 0.0, 0.0, 0.0, 0.0, 0.0, 0.0, 0.0, 0.0)",23,1711824203,965421915,imu1_frame,-1.303e-05,5.4810000000000005e-05,3.297e-05,"(0.0, 0.0, 0.0, 0.0, 0.0, 0.0, 0.0, 0.0, 0.0)","$VNYMR,+134.851,-007.139,-000.363,-00.1303,+00.5481,+00.3297,-01.287,+00.029,-09.807,+00.000998,-00.001639,+00.000158*60"
1711824204.0279772,24,1711824204,21456718,imu1_frame,24,1711824204,21456718,imu1_frame,0.38854527,-0.20979637,0.87914776,0.17921294,"(0.0, 0.0, 0.0, 0.0, 0.0, 0.0, 0.0, 0.0, 0.0)",0.00132,-0.002509,0.001602,"(0.0, 0.0, 0.0, 0.0, 0.0, 0.0, 0.0, 0.0, 0.0)",-1.33,0.072,-9.813,"(0.0, 0.0, 0.0, 0.0, 0.0, 0.0, 0.0, 0.0, 0.0)",24,1711824204,21456718,imu1_frame,-1.2820000000000001e-05,5.469000000000001e-05,3.273e-05,"(0.0, 0.0, 0.0, 0.0, 0.0, 0.0, 0.0, 0.0, 0.0)","$VNYMR,+134.853,-007.144,-000.360,-00.1282,+00.5469,+00.3273,-01.330,+00.072,-09.813,+00.001320,-00.002509,+00.001602*6B"
1711824204.0758126,25,1711824204,69339036,imu1_frame,25,1711824204,69339036,imu1_frame,0.39008417,-0.20920811,0.87870091,0.17874847,"(0.0, 0.0, 0.0, 0.0, 0.0, 0.0, 0.0, 0.0, 0.0)",0.000301,0.000445,0.001093,"(0.0, 0.0, 0.0, 0.0, 0.0, 0.0, 0.0, 0.0, 0.0)",-1.398,0.119,-9.792,"(0.0, 0.0, 0.0, 0.0, 0.0, 0.0, 0.0, 0.0, 0.0)",25,1711824204,69339036,imu1_frame,-1.25e-05,5.492e-05,3.273e-05,"(0.0, 0.0, 0.0, 0.0, 0.0, 0.0, 0.0, 0.0, 0.0)","$VNYMR,+134.854,-007.147,-000.359,-00.1250,+00.5492,+00.3273,-01.398,+00.119,-09.792,+00.000301,+00.000445,+00.001093*67"
1711824204.124155,26,1711824204,117385149,imu1_frame,26,1711824204,117385149,imu1_frame,0.39198034,-0.20907233,0.8779325,0.17853487,"(0.0, 0.0, 0.0, 0.0, 0.0, 0.0, 0.0, 0.0, 0.0)",-0.000566,0.000932,0.00145,"(0.0, 0.0, 0.0, 0.0, 0.0, 0.0, 0.0, 0.0, 0.0)",-1.493,0.101,-9.862,"(0.0, 0.0, 0.0, 0.0, 0.0, 0.0, 0.0, 0.0, 0.0)",26,1711824204,117385149,imu1_frame,-1.293e-05,5.4579999999999996e-05,3.323e-05,"(0.0, 0.0, 0.0, 0.0, 0.0, 0.0, 0.0, 0.0, 0.0)","$VNYMR,+134.855,-007.151,-000.359,-00.1293,+00.5458,+00.3323,-01.493,+00.101,-09.862,-00.000566,+00.000932,+00.001450*6E"
1711824204.1739607,27,1711824204,169276475,imu1_frame,27,1711824204,169276475,imu1_frame,0.39333836,-0.20935822,0.87727161,0.17846176,"(0.0, 0.0, 0.0, 0.0, 0.0, 0.0, 0.0, 0.0, 0.0)",-0.000441,0.00083,-0.000143,"(0.0, 0.0, 0.0, 0.0, 0.0, 0.0, 0.0, 0.0, 0.0)",-1.46,0.004,-9.867,"(0.0, 0.0, 0.0, 0.0, 0.0, 0.0, 0.0, 0.0, 0.0)",27,1711824204,169276475,imu1_frame,-1.261e-05,5.457e-05,3.286e-05,"(0.0, 0.0, 0.0, 0.0, 0.0, 0.0, 0.0, 0.0, 0.0)","$VNYMR,+134.856,-007.154,-000.360,-00.1261,+00.5457,+00.3286,-01.460,+00.004,-09.867,-00.000441,+00.000830,-00.000143*64"
1711824204.2295058,28,1711824204,221864223,imu1_frame,28,1711824204,221864223,imu1_frame,0.39450127,-0.2102772,0.87641429,0.1790258,"(0.0, 0.0, 0.0, 0.0, 0.0, 0.0, 0.0, 0.0, 0.0)",-0.00125,0.000299,-0.000627,"(0.0, 0.0, 0.0, 0.0, 0.0, 0.0, 0.0, 0.0, 0.0)",-1.479,0.033,-9.862,"(0.0, 0.0, 0.0, 0.0, 0.0, 0.0, 0.0, 0.0, 0.0)",28,1711824204,221864223,imu1_frame,-1.2720000000000002e-05,5.435e-05,3.324e-05,"(0.0, 0.0, 0.0, 0.0, 0.0, 0.0, 0.0, 0.0, 0.0)","$VNYMR,+134.856,-007.157,-000.362,-00.1272,+00.5435,+00.3324,-01.479,+00.033,-09.862,-00.001250,+00.000299,-00.000627*68"
1711824204.2729757,29,1711824204,265352487,imu1_frame,29,1711824204,265352487,imu1_frame,0.3963043,-0.21057182,0.87553221,0.17901328,"(0.0, 0.0, 0.0, 0.0, 0.0, 0.0, 0.0, 0.0, 0.0)",-0.00121,-0.001336,0.000333,"(0.0, 0.0, 0.0, 0.0, 0.0, 0.0, 0.0, 0.0, 0.0)",-1.454,0.006,-9.889,"(0.0, 0.0, 0.0, 0.0, 0.0, 0.0, 0.0, 0.0, 0.0)",29,1711824204,265352487,imu1_frame,-1.27e-05,5.515e-05,3.272e-05,"(0.0, 0.0, 0.0, 0.0, 0.0, 0.0, 0.0, 0.0, 0.0)","$VNYMR,+134.857,-007.161,-000.363,-00.1270,+00.5515,+00.3272,-01.454,+00.006,-09.889,-00.001210,-00.001336,+00.000333*63"
1711824204.3238094,30,1711824204,317346811,imu1_frame,30,1711824204,317346811,imu1_frame,0.39764373,-0.21061153,0.87488016,0.17918413,"(0.0, 0.0, 0.0, 0.0, 0.0, 0.0, 0.0, 0.0, 0.0)",0.000645,0.000764,0.000746,"(0.0, 0.0, 0.0, 0.0, 0.0, 0.0, 0.0, 0.0, 0.0)",-1.422,0.007,-9.827,"(0.0, 0.0, 0.0, 0.0, 0.0, 0.0, 0.0, 0.0, 0.0)",30,1711824204,317346811,imu1_frame,-1.2839999999999999e-05,5.378e-05,3.312e-05,"(0.0, 0.0, 0.0, 0.0, 0.0, 0.0, 0.0, 0.0, 0.0)","$VNYMR,+134.857,-007.164,-000.363,-00.1284,+00.5378,+00.3312,-01.422,+00.007,-09.827,+00.000645,+00.000764,+00.000746*62"
1711824204.380029,31,1711824204,373486757,imu1_frame,31,1711824204,373486757,imu1_frame,0.3992819,-0.20981444,0.87451008,0.17828064,"(0.0, 0.0, 0.0, 0.0, 0.0, 0.0, 0.0, 0.0, 0.0)",0.000775,-0.000803,0.000368,"(0.0, 0.0, 0.0, 0.0, 0.0, 0.0, 0.0, 0.0, 0.0)",-1.449,-0.053,-9.862,"(0.0, 0.0, 0.0, 0.0, 0.0, 0.0, 0.0, 0.0, 0.0)",31,1711824204,373486757,imu1_frame,-1.283e-05,5.424e-05,3.337e-05,"(0.0, 0.0, 0.0, 0.0, 0.0, 0.0, 0.0, 0.0, 0.0)","$VNYMR,+134.859,-007.167,-000.362,-00.1283,+00.5424,+00.3337,-01.449,-00.053,-09.862,+00.000775,-00.000803,+00.000368*69"
1711824204.422055,32,1711824204,417344570,imu1_frame,32,1711824204,417344570,imu1_frame,0.40160023,-0.20944036,0.87352082,0.17836302,"(0.0, 0.0, 0.0, 0.0, 0.0, 0.0, 0.0, 0.0, 0.0)",-0.000388,-0.001379,-0.000291,"(0.0, 0.0, 0.0, 0.0, 0.0, 0.0, 0.0, 0.0, 0.0)",-1.477,0.032,-9.885,"(0.0, 0.0, 0.0, 0.0, 0.0, 0.0, 0.0, 0.0, 0.0)",32,1711824204,417344570,imu1_frame,-1.2839999999999999e-05,5.4010000000000006e-05,3.286e-05,"(0.0, 0.0, 0.0, 0.0, 0.0, 0.0, 0.0, 0.0, 0.0)","$VNYMR,+134.859,-007.172,-000.361,-00.1284,+00.5401,+00.3286,-01.477,+00.032,-09.885,-00.000388,-00.001379,-00.000291*66"
1711824204.4795582,33,1711824204,473310947,imu1_frame,33,1711824204,473310947,imu1_frame,0.40177839,-0.20856673,0.87372982,0.17796133,"(0.0, 0.0, 0.0, 0.0, 0.0, 0.0, 0.0, 0.0, 0.0)",0.000688,0.00011,8.7e-05,"(0.0, 0.0, 0.0, 0.0, 0.0, 0.0, 0.0, 0.0, 0.0)",-1.315,0.11,-9.858,"(0.0, 0.0, 0.0, 0.0, 0.0, 0.0, 0.0, 0.0, 0.0)",33,1711824204,473310947,imu1_frame,-1.2600000000000001e-05,5.4800000000000004e-05,3.222e-05,"(0.0, 0.0, 0.0, 0.0, 0.0, 0.0, 0.0, 0.0, 0.0)","$VNYMR,+134.859,-007.172,-000.359,-00.1260,+00.5480,+00.3222,-01.315,+00.110,-09.858,+00.000688,+00.000110,+00.000087*68"
1711824204.5279987,34,1711824204,521386384,imu1_frame,34,1711824204,521386384,imu1_frame,0.40133269,-0.20855398,0.87394906,0.17790546,"(0.0, 0.0, 0.0, 0.0, 0.0, 0.0, 0.0, 0.0, 0.0)",0.001187,-0.000461,-0.001672,"(0.0, 0.0, 0.0, 0.0, 0.0, 0.0, 0.0, 0.0, 0.0)",-1.077,0.124,-9.853,"(0.0, 0.0, 0.0, 0.0, 0.0, 0.0, 0.0, 0.0, 0.0)",34,1711824204,521386384,imu1_frame,-1.294e-05,5.4010000000000006e-05,3.286e-05,"(0.0, 0.0, 0.0, 0.0, 0.0, 0.0, 0.0, 0.0, 0.0)","$VNYMR,+134.859,-007.171,-000.359,-00.1294,+00.5401,+00.3286,-01.077,+00.124,-09.853,+00.001187,-00.000461,-00.001672*6B"
1711824204.5719538,35,1711824204,565363168,imu1_frame,35,1711824204,565363168,imu1_frame,0.40131748,-0.20831766,0.87396427,0.17814178,"(0.0, 0.0, 0.0, 0.0, 0.0, 0.0, 0.0, 0.0, 0.0)",0.001327,-0.001096,-0.001012,"(0.0, 0.0, 0.0, 0.0, 0.0, 0.0, 0.0, 0.0, 0.0)",-1.038,0.052,-9.741,"(0.0, 0.0, 0.0, 0.0, 0.0, 0.0, 0.0, 0.0, 0.0)",35,1711824204,565363168,imu1_frame,-1.2820000000000001e-05,5.4810000000000005e-05,3.26e-05,"(0.0, 0.0, 0.0, 0.0, 0.0, 0.0, 0.0, 0.0, 0.0)","$VNYMR,+134.858,-007.171,-000.358,-00.1282,+00.5481,+00.3260,-01.038,+00.052,-09.741,+00.001327,-00.001096,-00.001012*6E"
1711824204.6241622,36,1711824204,617295503,imu1_frame,36,1711824204,617295503,imu1_frame,0.40410966,-0.20842769,0.87271938,0.1778037,"(0.0, 0.0, 0.0, 0.0, 0.0, 0.0, 0.0, 0.0, 0.0)",-0.000196,-0.001999,0.000731,"(0.0, 0.0, 0.0, 0.0, 0.0, 0.0, 0.0, 0.0, 0.0)",-1.103,0.055,-9.713,"(0.0, 0.0, 0.0, 0.0, 0.0, 0.0, 0.0, 0.0, 0.0)",36,1711824204,617295503,imu1_frame,-1.293e-05,5.4579999999999996e-05,3.26e-05,"(0.0, 0.0, 0.0, 0.0, 0.0, 0.0, 0.0, 0.0, 0.0)","$VNYMR,+134.860,-007.177,-000.359,-00.1293,+00.5458,+00.3260,-01.103,+00.055,-09.713,-00.000196,-00.001999,+00.000731*67"
1711824204.6759512,37,1711824204,669415235,imu1_frame,37,1711824204,669415235,imu1_frame,0.40661319,-0.21179186,0.87041997,0.17938506,"(0.0, 0.0, 0.0, 0.0, 0.0, 0.0, 0.0, 0.0, 0.0)",-0.007311,0.002535,0.000423,"(0.0, 0.0, 0.0, 0.0, 0.0, 0.0, 0.0, 0.0, 0.0)",-1.298,0.123,-9.637,"(0.0, 0.0, 0.0, 0.0, 0.0, 0.0, 0.0, 0.0, 0.0)",37,1711824204,669415235,imu1_frame,-1.2839999999999999e-05,5.4120000000000004e-05,3.35e-05,"(0.0, 0.0, 0.0, 0.0, 0.0, 0.0, 0.0, 0.0, 0.0)","$VNYMR,+134.861,-007.184,-000.367,-00.1284,+00.5412,+00.3350,-01.298,+00.123,-09.637,-00.007311,+00.002535,+00.000423*6E"
1711824204.7195861,38,1711824204,713327169,imu1_frame,38,1711824204,713327169,imu1_frame,0.40700065,-0.21270076,0.87005884,0.17918277,"(0.0, 0.0, 0.0, 0.0, 0.0, 0.0, 0.0, 0.0, 0.0)",0.000138,0.001434,0.001541,"(0.0, 0.0, 0.0, 0.0, 0.0, 0.0, 0.0, 0.0, 0.0)",-1.265,0.036,-9.854,"(0.0, 0.0, 0.0, 0.0, 0.0, 0.0, 0.0, 0.0, 0.0)",38,1711824204,713327169,imu1_frame,-1.2620000000000001e-05,5.446e-05,3.299e-05,"(0.0, 0.0, 0.0, 0.0, 0.0, 0.0, 0.0, 0.0, 0.0)","$VNYMR,+134.863,-007.185,-000.370,-00.1262,+00.5446,+00.3299,-01.265,+00.036,-09.854,+00.000138,+00.001434,+00.001541*65"
1711824204.8321006,39,1711824204,817342042,imu1_frame,39,1711824204,817342042,imu1_frame,0.39870651,-0.2113901,0.87446885,0.1779089,"(0.0, 0.0, 0.0, 0.0, 0.0, 0.0, 0.0, 0.0, 0.0)",0.001658,0.002837,-0.000437,"(0.0, 0.0, 0.0, 0.0, 0.0, 0.0, 0.0, 0.0, 0.0)",-1.224,0.025,-9.9,"(0.0, 0.0, 0.0, 0.0, 0.0, 0.0, 0.0, 0.0, 0.0)",39,1711824204,817342042,imu1_frame,-1.2820000000000001e-05,5.469000000000001e-05,3.273e-05,"(0.0, 0.0, 0.0, 0.0, 0.0, 0.0, 0.0, 0.0, 0.0)","$VNYMR,+134.862,-007.166,-000.367,-00.1282,+00.5469,+00.3273,-01.224,+00.025,-09.900,+00.001658,+00.002837,-00.000437*64"
1711824204.8730125,40,1711824204,865367889,imu1_frame,40,1711824204,865367889,imu1_frame,0.3972761,-0.20959258,0.87576002,0.17688143,"(0.0, 0.0, 0.0, 0.0, 0.0, 0.0, 0.0, 0.0, 0.0)",-0.000965,0.000168,-0.000175,"(0.0, 0.0, 0.0, 0.0, 0.0, 0.0, 0.0, 0.0, 0.0)",-1.251,0.081,-9.871,"(0.0, 0.0, 0.0, 0.0, 0.0, 0.0, 0.0, 0.0, 0.0)",40,1711824204,865367889,imu1_frame,-1.2720000000000002e-05,5.4579999999999996e-05,3.349e-05,"(0.0, 0.0, 0.0, 0.0, 0.0, 0.0, 0.0, 0.0, 0.0)","$VNYMR,+134.862,-007.162,-000.363,-00.1272,+00.5458,+00.3349,-01.251,+00.081,-09.871,-00.000965,+00.000168,-00.000175*6E"
1711824204.9231567,41,1711824204,917360782,imu1_frame,41,1711824204,917360782,imu1_frame,0.39978895,-0.208578,0.87496929,0.17633139,"(0.0, 0.0, 0.0, 0.0, 0.0, 0.0, 0.0, 0.0, 0.0)",0.000655,-0.003086,0.00018,"(0.0, 0.0, 0.0, 0.0, 0.0, 0.0, 0.0, 0.0, 0.0)",-1.3,-0.017,-9.817,"(0.0, 0.0, 0.0, 0.0, 0.0, 0.0, 0.0, 0.0, 0.0)",41,1711824204,917360782,imu1_frame,-1.2839999999999999e-05,5.4010000000000006e-05,3.337e-05,"(0.0, 0.0, 0.0, 0.0, 0.0, 0.0, 0.0, 0.0, 0.0)","$VNYMR,+134.863,-007.167,-000.361,-00.1284,+00.5401,+00.3337,-01.300,-00.017,-09.817,+00.000655,-00.003086,+00.000180*6A"
1711824204.9758248,42,1711824204,969436883,imu1_frame,42,1711824204,969436883,imu1_frame,0.40335472,-0.20867136,0.87321708,0.17678564,"(0.0, 0.0, 0.0, 0.0, 0.0, 0.0, 0.0, 0.0, 0.0)",0.00158,-0.002272,0.000536,"(0.0, 0.0, 0.0, 0.0, 0.0, 0.0, 0.0, 0.0, 0.0)",-1.329,0.048,-9.818,"(0.0, 0.0, 0.0, 0.0, 0.0, 0.0, 0.0, 0.0, 0.0)",42,1711824204,969436883,imu1_frame,-1.283e-05,5.424e-05,3.273e-05,"(0.0, 0.0, 0.0, 0.0, 0.0, 0.0, 0.0, 0.0, 0.0)","$VNYMR,+134.863,-007.175,-000.361,-00.1283,+00.5424,+00.3273,-01.329,+00.048,-09.818,+00.001580,-00.002272,+00.000536*6B"
1711824205.0237212,43,1711824205,17249345,imu1_frame,43,1711824205,17249345,imu1_frame,0.40566853,-0.20829193,0.87221911,0.17686529,"(0.0, 0.0, 0.0, 0.0, 0.0, 0.0, 0.0, 0.0, 0.0)",0.000413,-0.001998,0.000748,"(0.0, 0.0, 0.0, 0.0, 0.0, 0.0, 0.0, 0.0, 0.0)",-1.325,0.124,-9.9,"(0.0, 0.0, 0.0, 0.0, 0.0, 0.0, 0.0, 0.0, 0.0)",43,1711824205,17249345,imu1_frame,-1.2690000000000002e-05,5.5610000000000005e-05,3.3220000000000004e-05,"(0.0, 0.0, 0.0, 0.0, 0.0, 0.0, 0.0, 0.0, 0.0)","$VNYMR,+134.863,-007.180,-000.360,-00.1269,+00.5561,+00.3322,-01.325,+00.124,-09.900,+00.000413,-00.001998,+00.000748*63"
1711824205.0743825,44,1711824205,69316387,imu1_frame,44,1711824205,69316387,imu1_frame,0.40324662,-0.20667728,0.87386782,0.17615814,"(0.0, 0.0, 0.0, 0.0, 0.0, 0.0, 0.0, 0.0, 0.0)",0.002102,0.001329,-0.000103,"(0.0, 0.0, 0.0, 0.0, 0.0, 0.0, 0.0, 0.0, 0.0)",-1.226,0.118,-9.845,"(0.0, 0.0, 0.0, 0.0, 0.0, 0.0, 0.0, 0.0, 0.0)",44,1711824205,69316387,imu1_frame,-1.3039999999999999e-05,5.4130000000000005e-05,3.235e-05,"(0.0, 0.0, 0.0, 0.0, 0.0, 0.0, 0.0, 0.0, 0.0)","$VNYMR,+134.862,-007.174,-000.356,-00.1304,+00.5413,+00.3235,-01.226,+00.118,-09.845,+00.002102,+00.001329,-00.000103*66"
1711824205.1235657,45,1711824205,117280483,imu1_frame,45,1711824205,117280483,imu1_frame,0.40003735,-0.20702769,0.87529682,0.17596913,"(0.0, 0.0, 0.0, 0.0, 0.0, 0.0, 0.0, 0.0, 0.0)",0.000736,-5.5e-05,-0.001585,"(0.0, 0.0, 0.0, 0.0, 0.0, 0.0, 0.0, 0.0, 0.0)",-1.153,0.102,-9.826,"(0.0, 0.0, 0.0, 0.0, 0.0, 0.0, 0.0, 0.0, 0.0)",45,1711824205,117280483,imu1_frame,-1.2820000000000001e-05,5.4810000000000005e-05,3.222e-05,"(0.0, 0.0, 0.0, 0.0, 0.0, 0.0, 0.0, 0.0, 0.0)","$VNYMR,+134.862,-007.167,-000.357,-00.1282,+00.5481,+00.3222,-01.153,+00.102,-09.826,+00.000736,-00.000055,-00.001585*6F"
1711824205.1755347,46,1711824205,169360876,imu1_frame,46,1711824205,169360876,imu1_frame,0.39921723,-0.20632631,0.87585142,0.17589585,"(0.0, 0.0, 0.0, 0.0, 0.0, 0.0, 0.0, 0.0, 0.0)",0.001116,-0.002335,-5.1e-05,"(0.0, 0.0, 0.0, 0.0, 0.0, 0.0, 0.0, 0.0, 0.0)",-1.108,0.074,-9.719,"(0.0, 0.0, 0.0, 0.0, 0.0, 0.0, 0.0, 0.0, 0.0)",46,1711824205,169360876,imu1_frame,-1.283e-05,5.447e-05,3.311e-05,"(0.0, 0.0, 0.0, 0.0, 0.0, 0.0, 0.0, 0.0, 0.0)","$VNYMR,+134.861,-007.165,-000.355,-00.1283,+00.5447,+00.3311,-01.108,+00.074,-09.719,+00.001116,-00.002335,-00.000051*64"
1711824205.2209008,47,1711824205,213371992,imu1_frame,47,1711824205,213371992,imu1_frame,0.40091424,-0.20681569,0.87487544,0.17631793,"(0.0, 0.0, 0.0, 0.0, 0.0, 0.0, 0.0, 0.0, 0.0)",4.6e-05,-0.002805,-0.00067,"(0.0, 0.0, 0.0, 0.0, 0.0, 0.0, 0.0, 0.0, 0.0)",-1.183,0.117,-9.784,"(0.0, 0.0, 0.0, 0.0, 0.0, 0.0, 0.0, 0.0, 0.0)",47,1711824205,213371992,imu1_frame,-1.2920000000000002e-05,5.470000000000001e-05,3.247e-05,"(0.0, 0.0, 0.0, 0.0, 0.0, 0.0, 0.0, 0.0, 0.0)","$VNYMR,+134.861,-007.169,-000.356,-00.1292,+00.5470,+00.3247,-01.183,+00.117,-09.784,+00.000046,-00.002805,-00.000670*66"
1711824205.2791166,48,1711824205,273384094,imu1_frame,48,1711824205,273384094,imu1_frame,0.40350035,-0.20732811,0.87345626,0.17685212,"(0.0, 0.0, 0.0, 0.0, 0.0, 0.0, 0.0, 0.0, 0.0)",-0.002258,0.001332,-0.000143,"(0.0, 0.0, 0.0, 0.0, 0.0, 0.0, 0.0, 0.0, 0.0)",-1.229,0.15,-9.833,"(0.0, 0.0, 0.0, 0.0, 0.0, 0.0, 0.0, 0.0, 0.0)",48,1711824205,273384094,imu1_frame,-1.2720000000000002e-05,5.469000000000001e-05,3.311e-05,"(0.0, 0.0, 0.0, 0.0, 0.0, 0.0, 0.0, 0.0, 0.0)","$VNYMR,+134.861,-007.175,-000.357,-00.1272,+00.5469,+00.3311,-01.229,+00.150,-09.833,-00.002258,+00.001332,-00.000143*69"
1711824205.3238819,49,1711824205,317260980,imu1_frame,49,1711824205,317260980,imu1_frame,0.40575691,-0.20785579,0.87232315,0.17666243,"(0.0, 0.0, 0.0, 0.0, 0.0, 0.0, 0.0, 0.0, 0.0)",-0.001815,0.000724,0.001023,"(0.0, 0.0, 0.0, 0.0, 0.0, 0.0, 0.0, 0.0, 0.0)",-1.238,0.102,-9.918,"(0.0, 0.0, 0.0, 0.0, 0.0, 0.0, 0.0, 0.0, 0.0)",49,1711824205,317260980,imu1_frame,-1.249e-05,5.5140000000000004e-05,3.26e-05,"(0.0, 0.0, 0.0, 0.0, 0.0, 0.0, 0.0, 0.0, 0.0)","$VNYMR,+134.863,-007.180,-000.359,-00.1249,+00.5514,+00.3260,-01.238,+00.102,-09.918,-00.001815,+00.000724,+00.001023*66"
1711824205.3746836,50,1711824205,369360923,imu1_frame,50,1711824205,369360923,imu1_frame,0.40630562,-0.20766406,0.87219031,0.17628228,"(0.0, 0.0, 0.0, 0.0, 0.0, 0.0, 0.0, 0.0, 0.0)",0.000946,0.002284,-6.1e-05,"(0.0, 0.0, 0.0, 0.0, 0.0, 0.0, 0.0, 0.0, 0.0)",-1.211,0.045,-9.925,"(0.0, 0.0, 0.0, 0.0, 0.0, 0.0, 0.0, 0.0, 0.0)",50,1711824205,369360923,imu1_frame,-1.2620000000000001e-05,5.4120000000000004e-05,3.299e-05,"(0.0, 0.0, 0.0, 0.0, 0.0, 0.0, 0.0, 0.0, 0.0)","$VNYMR,+134.864,-007.181,-000.359,-00.1262,+00.5412,+00.3299,-01.211,+00.045,-09.925,+00.000946,+00.002284,-00.000061*63"
1711824205.4225588,51,1711824205,417592287,imu1_frame,51,1711824205,417592287,imu1_frame,0.40540025,-0.20740805,0.87264783,0.1764038,"(0.0, 0.0, 0.0, 0.0, 0.0, 0.0, 0.0, 0.0, 0.0)",-0.000318,0.00065,-0.000178,"(0.0, 0.0, 0.0, 0.0, 0.0, 0.0, 0.0, 0.0, 0.0)",-1.214,0.025,-9.862,"(0.0, 0.0, 0.0, 0.0, 0.0, 0.0, 0.0, 0.0, 0.0)",51,1711824205,417592287,imu1_frame,-1.24e-05,5.4800000000000004e-05,3.375000000000001e-05,"(0.0, 0.0, 0.0, 0.0, 0.0, 0.0, 0.0, 0.0, 0.0)","$VNYMR,+134.863,-007.179,-000.358,-00.1240,+00.5480,+00.3375,-01.214,+00.025,-09.862,-00.000318,+00.000650,-00.000178*6A"
1711824205.4799957,52,1711824205,473356485,imu1_frame,52,1711824205,473356485,imu1_frame,0.40511617,-0.20628949,0.87309061,0.17617695,"(0.0, 0.0, 0.0, 0.0, 0.0, 0.0, 0.0, 0.0, 0.0)",0.000643,-0.000764,-0.000147,"(0.0, 0.0, 0.0, 0.0, 0.0, 0.0, 0.0, 0.0, 0.0)",-1.196,0.024,-9.837,"(0.0, 0.0, 0.0, 0.0, 0.0, 0.0, 0.0, 0.0, 0.0)",52,1711824205,473356485,imu1_frame,-1.2720000000000002e-05,5.446e-05,3.324e-05,"(0.0, 0.0, 0.0, 0.0, 0.0, 0.0, 0.0, 0.0, 0.0)","$VNYMR,+134.862,-007.178,-000.355,-00.1272,+00.5446,+00.3324,-01.196,+00.024,-09.837,+00.000643,-00.000764,-00.000147*61"
1711824205.5225823,53,1711824205,517296791,imu1_frame,53,1711824205,517296791,imu1_frame,0.40696948,-0.20566903,0.87232448,0.1764259,"(0.0, 0.0, 0.0, 0.0, 0.0, 0.0, 0.0, 0.0, 0.0)",0.000154,-0.002787,-0.001227,"(0.0, 0.0, 0.0, 0.0, 0.0, 0.0, 0.0, 0.0, 0.0)",-1.233,0.006,-9.853,"(0.0, 0.0, 0.0, 0.0, 0.0, 0.0, 0.0, 0.0, 0.0)",53,1711824205,517296791,imu1_frame,-1.2590000000000001e-05,5.537e-05,3.2340000000000005e-05,"(0.0, 0.0, 0.0, 0.0, 0.0, 0.0, 0.0, 0.0, 0.0)","$VNYMR,+134.861,-007.182,-000.353,-00.1259,+00.5537,+00.3234,-01.233,+00.006,-09.853,+00.000154,-00.002787,-00.001227*6B"
1711824205.5760155,54,1711824205,569439172,imu1_frame,54,1711824205,569439172,imu1_frame,0.4084943,-0.205066,0.87185002,0.17594851,"(0.0, 0.0, 0.0, 0.0, 0.0, 0.0, 0.0, 0.0, 0.0)",-0.000697,-0.001666,0.001039,"(0.0, 0.0, 0.0, 0.0, 0.0, 0.0, 0.0, 0.0, 0.0)",-1.316,0.026,-9.825,"(0.0, 0.0, 0.0, 0.0, 0.0, 0.0, 0.0, 0.0, 0.0)",54,1711824205,569439172,imu1_frame,-1.294e-05,5.4130000000000005e-05,3.286e-05,"(0.0, 0.0, 0.0, 0.0, 0.0, 0.0, 0.0, 0.0, 0.0)","$VNYMR,+134.862,-007.185,-000.352,-00.1294,+00.5413,+00.3286,-01.316,+00.026,-09.825,-00.000697,-00.001666,+00.001039*6C"
1711824205.6236486,55,1711824205,617297172,imu1_frame,55,1711824205,617297172,imu1_frame,0.40913363,-0.20662808,0.87108188,0.17643941,"(0.0, 0.0, 0.0, 0.0, 0.0, 0.0, 0.0, 0.0, 0.0)",-9.6e-05,5.3e-05,-0.000191,"(0.0, 0.0, 0.0, 0.0, 0.0, 0.0, 0.0, 0.0, 0.0)",-1.367,0.102,-9.936,"(0.0, 0.0, 0.0, 0.0, 0.0, 0.0, 0.0, 0.0, 0.0)",55,1711824205,617297172,imu1_frame,-1.27e-05,5.515e-05,3.247e-05,"(0.0, 0.0, 0.0, 0.0, 0.0, 0.0, 0.0, 0.0, 0.0)","$VNYMR,+134.863,-007.187,-000.356,-00.1270,+00.5515,+00.3247,-01.367,+00.102,-09.936,-00.000096,+00.000053,-00.000191*6D"
1711824205.6787937,56,1711824205,673351526,imu1_frame,56,1711824205,673351526,imu1_frame,0.40852821,-0.20771914,0.87108175,0.17656175,"(0.0, 0.0, 0.0, 0.0, 0.0, 0.0, 0.0, 0.0, 0.0)",0.000716,0.000274,0.000771,"(0.0, 0.0, 0.0, 0.0, 0.0, 0.0, 0.0, 0.0, 0.0)",-1.4,0.083,-9.935,"(0.0, 0.0, 0.0, 0.0, 0.0, 0.0, 0.0, 0.0, 0.0)",56,1711824205,673351526,imu1_frame,-1.27e-05,5.538e-05,3.2850000000000006e-05,"(0.0, 0.0, 0.0, 0.0, 0.0, 0.0, 0.0, 0.0, 0.0)","$VNYMR,+134.864,-007.186,-000.359,-00.1270,+00.5538,+00.3285,-01.400,+00.083,-09.935,+00.000716,+00.000274,+00.000771*68"
1711824205.7250726,57,1711824205,713884830,imu1_frame,57,1711824205,713884830,imu1_frame,0.40667802,-0.20834373,0.87184919,0.17630902,"(0.0, 0.0, 0.0, 0.0, 0.0, 0.0, 0.0, 0.0, 0.0)",0.001087,-0.000798,-0.000299,"(0.0, 0.0, 0.0, 0.0, 0.0, 0.0, 0.0, 0.0, 0.0)",-1.274,0.168,-9.833,"(0.0, 0.0, 0.0, 0.0, 0.0, 0.0, 0.0, 0.0, 0.0)",57,1711824205,713884830,imu1_frame,-1.273e-05,5.4010000000000006e-05,3.299e-05,"(0.0, 0.0, 0.0, 0.0, 0.0, 0.0, 0.0, 0.0, 0.0)","$VNYMR,+134.865,-007.182,-000.361,-00.1273,+00.5401,+00.3299,-01.274,+00.168,-09.833,+00.001087,-00.000798,-00.000299*6F"
1711824205.7760963,58,1711824205,769433259,imu1_frame,58,1711824205,769433259,imu1_frame,0.40658504,-0.2065885,0.87248537,0.17543966,"(0.0, 0.0, 0.0, 0.0, 0.0, 0.0, 0.0, 0.0, 0.0)",0.00322,-0.001668,-0.002247,"(0.0, 0.0, 0.0, 0.0, 0.0, 0.0, 0.0, 0.0, 0.0)",-1.15,0.108,-9.913,"(0.0, 0.0, 0.0, 0.0, 0.0, 0.0, 0.0, 0.0, 0.0)",58,1711824205,769433259,imu1_frame,-1.2820000000000001e-05,5.4810000000000005e-05,3.298e-05,"(0.0, 0.0, 0.0, 0.0, 0.0, 0.0, 0.0, 0.0, 0.0)","$VNYMR,+134.865,-007.181,-000.357,-00.1282,+00.5481,+00.3298,-01.150,+00.108,-09.913,+00.003220,-00.001668,-00.002247*6D"
1711824205.8235998,59,1711824205,817325115,imu1_frame,59,1711824205,817325115,imu1_frame,0.40702237,-0.20440664,0.87299911,0.17442265,"(0.0, 0.0, 0.0, 0.0, 0.0, 0.0, 0.0, 0.0, 0.0)",0.00204,-0.000678,-0.00125,"(0.0, 0.0, 0.0, 0.0, 0.0, 0.0, 0.0, 0.0, 0.0)",-1.092,0.04,-9.821,"(0.0, 0.0, 0.0, 0.0, 0.0, 0.0, 0.0, 0.0, 0.0)",59,1711824205,817325115,imu1_frame,-1.2720000000000002e-05,5.446e-05,3.286e-05,"(0.0, 0.0, 0.0, 0.0, 0.0, 0.0, 0.0, 0.0, 0.0)","$VNYMR,+134.865,-007.181,-000.352,-00.1272,+00.5446,+00.3286,-01.092,+00.040,-09.821,+00.002040,-00.000678,-00.001250*61"
1711824205.876326,60,1711824205,869340658,imu1_frame,60,1711824205,869340658,imu1_frame,0.40807184,-0.20332493,0.87277507,0.17435603,"(0.0, 0.0, 0.0, 0.0, 0.0, 0.0, 0.0, 0.0, 0.0)",0.000517,0.000649,0.001071,"(0.0, 0.0, 0.0, 0.0, 0.0, 0.0, 0.0, 0.0, 0.0)",-1.147,0.041,-9.808,"(0.0, 0.0, 0.0, 0.0, 0.0, 0.0, 0.0, 0.0, 0.0)",60,1711824205,869340658,imu1_frame,-1.2820000000000001e-05,5.4810000000000005e-05,3.323e-05,"(0.0, 0.0, 0.0, 0.0, 0.0, 0.0, 0.0, 0.0, 0.0)","$VNYMR,+134.864,-007.183,-000.349,-00.1282,+00.5481,+00.3323,-01.147,+00.041,-09.808,+00.000517,+00.000649,+00.001071*67"
1711824205.9215379,61,1711824205,917365789,imu1_frame,61,1711824205,917365789,imu1_frame,0.40968142,-0.20228413,0.87239932,0.17367124,"(0.0, 0.0, 0.0, 0.0, 0.0, 0.0, 0.0, 0.0, 0.0)",6.5e-05,-0.001192,0.000862,"(0.0, 0.0, 0.0, 0.0, 0.0, 0.0, 0.0, 0.0, 0.0)",-1.202,0.055,-9.737,"(0.0, 0.0, 0.0, 0.0, 0.0, 0.0, 0.0, 0.0, 0.0)",61,1711824205,917365789,imu1_frame,-1.294e-05,5.4010000000000006e-05,3.324e-05,"(0.0, 0.0, 0.0, 0.0, 0.0, 0.0, 0.0, 0.0, 0.0)","$VNYMR,+134.865,-007.186,-000.347,-00.1294,+00.5401,+00.3324,-01.202,+00.055,-09.737,+00.000065,-00.001192,+00.000862*6C"
1711824205.9753332,62,1711824205,969388484,imu1_frame,62,1711824205,969388484,imu1_frame,0.41041103,-0.20341055,0.8717372,0.17395742,"(0.0, 0.0, 0.0, 0.0, 0.0, 0.0, 0.0, 0.0, 0.0)",-0.000493,-0.000495,0.001192,"(0.0, 0.0, 0.0, 0.0, 0.0, 0.0, 0.0, 0.0, 0.0)",-1.221,0.083,-9.899,"(0.0, 0.0, 0.0, 0.0, 0.0, 0.0, 0.0, 0.0, 0.0)",62,1711824205,969388484,imu1_frame,-1.2620000000000001e-05,5.435e-05,3.299e-05,"(0.0, 0.0, 0.0, 0.0, 0.0, 0.0, 0.0, 0.0, 0.0)","$VNYMR,+134.866,-007.188,-000.350,-00.1262,+00.5435,+00.3299,-01.221,+00.083,-09.899,-00.000493,-00.000495,+00.001192*60"
1711824206.020956,63,1711824206,13364553,imu1_frame,63,1711824206,13364553,imu1_frame,0.40934814,-0.20425985,0.87197812,0.17425893,"(0.0, 0.0, 0.0, 0.0, 0.0, 0.0, 0.0, 0.0, 0.0)",0.000363,0.000927,0.000192,"(0.0, 0.0, 0.0, 0.0, 0.0, 0.0, 0.0, 0.0, 0.0)",-1.229,0.11,-9.888,"(0.0, 0.0, 0.0, 0.0, 0.0, 0.0, 0.0, 0.0, 0.0)",63,1711824206,13364553,imu1_frame,-1.2410000000000001e-05,5.423e-05,3.287e-05,"(0.0, 0.0, 0.0, 0.0, 0.0, 0.0, 0.0, 0.0, 0.0)","$VNYMR,+134.866,-007.186,-000.352,-00.1241,+00.5423,+00.3287,-01.229,+00.110,-09.888,+00.000363,+00.000927,+00.000192*6B"
1711824206.1193957,64,1711824206,113314628,imu1_frame,64,1711824206,113314628,imu1_frame,0.40840266,-0.20513741,0.872289,0.17389023,"(0.0, 0.0, 0.0, 0.0, 0.0, 0.0, 0.0, 0.0, 0.0)",-0.000503,-0.001527,-0.001105,"(0.0, 0.0, 0.0, 0.0, 0.0, 0.0, 0.0, 0.0, 0.0)",-1.297,0.026,-9.852,"(0.0, 0.0, 0.0, 0.0, 0.0, 0.0, 0.0, 0.0, 0.0)",64,1711824206,113314628,imu1_frame,-1.261e-05,5.457e-05,3.261e-05,"(0.0, 0.0, 0.0, 0.0, 0.0, 0.0, 0.0, 0.0, 0.0)","$VNYMR,+134.868,-007.184,-000.355,-00.1261,+00.5457,+00.3261,-01.297,+00.026,-09.852,-00.000503,-00.001527,-00.001105*6B"
1711824206.1965005,65,1711824206,189291477,imu1_frame,65,1711824206,189291477,imu1_frame,0.40975167,-0.20539975,0.87160728,0.17382538,"(0.0, 0.0, 0.0, 0.0, 0.0, 0.0, 0.0, 0.0, 0.0)",0.000424,-0.002024,-0.00031,"(0.0, 0.0, 0.0, 0.0, 0.0, 0.0, 0.0, 0.0, 0.0)",-1.168,0.074,-9.817,"(0.0, 0.0, 0.0, 0.0, 0.0, 0.0, 0.0, 0.0, 0.0)",65,1711824206,189291477,imu1_frame,-1.2920000000000002e-05,5.4930000000000004e-05,3.323e-05,"(0.0, 0.0, 0.0, 0.0, 0.0, 0.0, 0.0, 0.0, 0.0)","$VNYMR,+134.869,-007.187,-000.356,-00.1292,+00.5493,+00.3323,-01.168,+00.074,-09.817,+00.000424,-00.002024,-00.000310*6C"
1711824206.2478957,66,1711824206,241265773,imu1_frame,66,1711824206,241265773,imu1_frame,0.41075864,-0.20544466,0.87123309,0.1732707,"(0.0, 0.0, 0.0, 0.0, 0.0, 0.0, 0.0, 0.0, 0.0)",-2e-06,-0.00226,0.002199,"(0.0, 0.0, 0.0, 0.0, 0.0, 0.0, 0.0, 0.0, 0.0)",-1.111,0.114,-9.833,"(0.0, 0.0, 0.0, 0.0, 0.0, 0.0, 0.0, 0.0, 0.0)",66,1711824206,241265773,imu1_frame,-1.281e-05,5.504e-05,3.3100000000000005e-05,"(0.0, 0.0, 0.0, 0.0, 0.0, 0.0, 0.0, 0.0, 0.0)","$VNYMR,+134.871,-007.189,-000.357,-00.1281,+00.5504,+00.3310,-01.111,+00.114,-09.833,-00.000002,-00.002260,+00.002199*6B"
1711824206.3001323,67,1711824206,293386697,imu1_frame,67,1711824206,293386697,imu1_frame,0.41105003,-0.20459807,0.87150833,0.17219388,"(0.0, 0.0, 0.0, 0.0, 0.0, 0.0, 0.0, 0.0, 0.0)",6.8e-05,-0.000547,-0.001122,"(0.0, 0.0, 0.0, 0.0, 0.0, 0.0, 0.0, 0.0, 0.0)",-1.2,0.227,-9.804,"(0.0, 0.0, 0.0, 0.0, 0.0, 0.0, 0.0, 0.0, 0.0)",67,1711824206,293386697,imu1_frame,-1.27e-05,5.538e-05,3.323e-05,"(0.0, 0.0, 0.0, 0.0, 0.0, 0.0, 0.0, 0.0, 0.0)","$VNYMR,+134.873,-007.189,-000.356,-00.1270,+00.5538,+00.3323,-01.200,+00.227,-09.804,+00.000068,-00.000547,-00.001122*62"
1711824206.3481202,68,1711824206,341371059,imu1_frame,68,1711824206,341371059,imu1_frame,0.41023162,-0.20391292,0.87207139,0.17210763,"(0.0, 0.0, 0.0, 0.0, 0.0, 0.0, 0.0, 0.0, 0.0)",0.000705,-0.002021,-0.000149,"(0.0, 0.0, 0.0, 0.0, 0.0, 0.0, 0.0, 0.0, 0.0)",-1.194,0.043,-9.759,"(0.0, 0.0, 0.0, 0.0, 0.0, 0.0, 0.0, 0.0, 0.0)",68,1711824206,341371059,imu1_frame,-1.294e-05,5.4130000000000005e-05,3.26e-05,"(0.0, 0.0, 0.0, 0.0, 0.0, 0.0, 0.0, 0.0, 0.0)","$VNYMR,+134.872,-007.187,-000.354,-00.1294,+00.5413,+00.3260,-01.194,+00.043,-09.759,+00.000705,-00.002021,-00.000149*65"
1711824206.39953,69,1711824206,393360137,imu1_frame,69,1711824206,393360137,imu1_frame,0.41132222,-0.20156165,0.87251118,0.17003285,"(0.0, 0.0, 0.0, 0.0, 0.0, 0.0, 0.0, 0.0, 0.0)",0.002431,0.001214,0.000106,"(0.0, 0.0, 0.0, 0.0, 0.0, 0.0, 0.0, 0.0, 0.0)",-1.255,0.072,-9.801,"(0.0, 0.0, 0.0, 0.0, 0.0, 0.0, 0.0, 0.0, 0.0)",69,1711824206,393360137,imu1_frame,-1.25e-05,5.469000000000001e-05,3.286e-05,"(0.0, 0.0, 0.0, 0.0, 0.0, 0.0, 0.0, 0.0, 0.0)","$VNYMR,+134.875,-007.188,-000.350,-00.1250,+00.5469,+00.3286,-01.255,+00.072,-09.801,+00.002431,+00.001214,+00.000106*60"
1711824206.4496906,70,1711824206,445307731,imu1_frame,70,1711824206,445307731,imu1_frame,0.41203671,-0.20049258,0.87257459,0.16923964,"(0.0, 0.0, 0.0, 0.0, 0.0, 0.0, 0.0, 0.0, 0.0)",4e-06,-0.000677,-2.6e-05,"(0.0, 0.0, 0.0, 0.0, 0.0, 0.0, 0.0, 0.0, 0.0)",-1.256,0.034,-9.809,"(0.0, 0.0, 0.0, 0.0, 0.0, 0.0, 0.0, 0.0, 0.0)",70,1711824206,445307731,imu1_frame,-1.305e-05,5.4130000000000005e-05,3.336e-05,"(0.0, 0.0, 0.0, 0.0, 0.0, 0.0, 0.0, 0.0, 0.0)","$VNYMR,+134.876,-007.189,-000.348,-00.1305,+00.5413,+00.3336,-01.256,+00.034,-09.809,+00.000004,-00.000677,-00.000026*67"
1711824206.4969912,71,1711824206,489242076,imu1_frame,71,1711824206,489242076,imu1_frame,0.41238068,-0.20070806,0.8722672,0.16973031,"(0.0, 0.0, 0.0, 0.0, 0.0, 0.0, 0.0, 0.0, 0.0)",-0.000742,0.000814,-0.000941,"(0.0, 0.0, 0.0, 0.0, 0.0, 0.0, 0.0, 0.0, 0.0)",-1.158,0.053,-9.805,"(0.0, 0.0, 0.0, 0.0, 0.0, 0.0, 0.0, 0.0, 0.0)",71,1711824206,489242076,imu1_frame,-1.252e-05,5.423e-05,3.363e-05,"(0.0, 0.0, 0.0, 0.0, 0.0, 0.0, 0.0, 0.0, 0.0)","$VNYMR,+134.875,-007.190,-000.348,-00.1252,+00.5423,+00.3363,-01.158,+00.053,-09.805,-00.000742,+00.000814,-00.000941*6A"
1711824206.5529766,72,1711824206,546013355,imu1_frame,72,1711824206,546013355,imu1_frame,0.41089371,-0.2017832,0.87271751,0.16974699,"(0.0, 0.0, 0.0, 0.0, 0.0, 0.0, 0.0, 0.0, 0.0)",-0.001447,-0.00148,0.000917,"(0.0, 0.0, 0.0, 0.0, 0.0, 0.0, 0.0, 0.0, 0.0)",-1.196,0.047,-9.891,"(0.0, 0.0, 0.0, 0.0, 0.0, 0.0, 0.0, 0.0, 0.0)",72,1711824206,546013355,imu1_frame,-1.283e-05,5.4120000000000004e-05,3.299e-05,"(0.0, 0.0, 0.0, 0.0, 0.0, 0.0, 0.0, 0.0, 0.0)","$VNYMR,+134.876,-007.187,-000.351,-00.1283,+00.5412,+00.3299,-01.196,+00.047,-09.891,-00.001447,-00.001480,+00.000917*63"
1711824206.5970137,73,1711824206,589289188,imu1_frame,73,1711824206,589289188,imu1_frame,0.40932164,-0.20329752,0.87306267,0.16996318,"(0.0, 0.0, 0.0, 0.0, 0.0, 0.0, 0.0, 0.0, 0.0)",0.000368,-0.000162,0.000154,"(0.0, 0.0, 0.0, 0.0, 0.0, 0.0, 0.0, 0.0, 0.0)",-1.181,0.077,-9.8,"(0.0, 0.0, 0.0, 0.0, 0.0, 0.0, 0.0, 0.0, 0.0)",73,1711824206,589289188,imu1_frame,-1.2820000000000001e-05,5.469000000000001e-05,3.298e-05,"(0.0, 0.0, 0.0, 0.0, 0.0, 0.0, 0.0, 0.0, 0.0)","$VNYMR,+134.877,-007.184,-000.355,-00.1282,+00.5469,+00.3298,-01.181,+00.077,-09.800,+00.000368,-00.000162,+00.000154*6E"
1711824206.64989,74,1711824206,645286321,imu1_frame,74,1711824206,645286321,imu1_frame,0.40916848,-0.20440233,0.87284192,0.17014057,"(0.0, 0.0, 0.0, 0.0, 0.0, 0.0, 0.0, 0.0, 0.0)",-0.000325,-0.000103,-0.00015,"(0.0, 0.0, 0.0, 0.0, 0.0, 0.0, 0.0, 0.0, 0.0)",-1.141,0.088,-9.848,"(0.0, 0.0, 0.0, 0.0, 0.0, 0.0, 0.0, 0.0, 0.0)",74,1711824206,645286321,imu1_frame,-1.252e-05,5.4120000000000004e-05,3.287e-05,"(0.0, 0.0, 0.0, 0.0, 0.0, 0.0, 0.0, 0.0, 0.0)","$VNYMR,+134.878,-007.184,-000.358,-00.1252,+00.5412,+00.3287,-01.141,+00.088,-09.848,-00.000325,-00.000103,-00.000150*69"
1711824206.6956315,75,1711824206,689318895,imu1_frame,75,1711824206,689318895,imu1_frame,0.4098847,-0.20333265,0.87290915,0.16935162,"(0.0, 0.0, 0.0, 0.0, 0.0, 0.0, 0.0, 0.0, 0.0)",0.000504,0.000302,0.000226,"(0.0, 0.0, 0.0, 0.0, 0.0, 0.0, 0.0, 0.0, 0.0)",-1.247,0.075,-9.854,"(0.0, 0.0, 0.0, 0.0, 0.0, 0.0, 0.0, 0.0, 0.0)",75,1711824206,689318895,imu1_frame,-1.271e-05,5.4810000000000005e-05,3.222e-05,"(0.0, 0.0, 0.0, 0.0, 0.0, 0.0, 0.0, 0.0, 0.0)","$VNYMR,+134.879,-007.185,-000.356,-00.1271,+00.5481,+00.3222,-01.247,+00.075,-09.854,+00.000504,+00.000302,+00.000226*6B"
1711824206.7478797,76,1711824206,741353750,imu1_frame,76,1711824206,741353750,imu1_frame,0.41095237,-0.20074736,0.87336101,0.1675088,"(0.0, 0.0, 0.0, 0.0, 0.0, 0.0, 0.0, 0.0, 0.0)",0.000667,0.00051,9.5e-05,"(0.0, 0.0, 0.0, 0.0, 0.0, 0.0, 0.0, 0.0, 0.0)",-1.22,0.034,-9.785,"(0.0, 0.0, 0.0, 0.0, 0.0, 0.0, 0.0, 0.0, 0.0)",76,1711824206,741353750,imu1_frame,-1.2509999999999999e-05,5.4340000000000005e-05,3.312e-05,"(0.0, 0.0, 0.0, 0.0, 0.0, 0.0, 0.0, 0.0, 0.0)","$VNYMR,+134.881,-007.186,-000.351,-00.1251,+00.5434,+00.3312,-01.220,+00.034,-09.785,+00.000667,+00.000510,+00.000095*68"
1711824206.8002048,77,1711824206,793357372,imu1_frame,77,1711824206,793357372,imu1_frame,0.41189772,-0.19813502,0.87373749,0.16632973,"(0.0, 0.0, 0.0, 0.0, 0.0, 0.0, 0.0, 0.0, 0.0)",0.001203,-0.000773,0.000475,"(0.0, 0.0, 0.0, 0.0, 0.0, 0.0, 0.0, 0.0, 0.0)",-1.236,0.008,-9.856,"(0.0, 0.0, 0.0, 0.0, 0.0, 0.0, 0.0, 0.0, 0.0)",77,1711824206,793357372,imu1_frame,-1.281e-05,5.492e-05,3.26e-05,"(0.0, 0.0, 0.0, 0.0, 0.0, 0.0, 0.0, 0.0, 0.0)","$VNYMR,+134.881,-007.187,-000.345,-00.1281,+00.5492,+00.3260,-01.236,+00.008,-09.856,+00.001203,-00.000773,+00.000475*6C"
1711824206.8477437,78,1711824206,841325044,imu1_frame,78,1711824206,841325044,imu1_frame,0.41081216,-0.19679713,0.8746985,0.16554996,"(0.0, 0.0, 0.0, 0.0, 0.0, 0.0, 0.0, 0.0, 0.0)",-0.00048,-0.000265,-0.000953,"(0.0, 0.0, 0.0, 0.0, 0.0, 0.0, 0.0, 0.0, 0.0)",-1.212,0.051,-9.801,"(0.0, 0.0, 0.0, 0.0, 0.0, 0.0, 0.0, 0.0, 0.0)",78,1711824206,841325044,imu1_frame,-1.252e-05,5.4000000000000005e-05,3.313e-05,"(0.0, 0.0, 0.0, 0.0, 0.0, 0.0, 0.0, 0.0, 0.0)","$VNYMR,+134.881,-007.184,-000.342,-00.1252,+00.5400,+00.3313,-01.212,+00.051,-09.801,-00.000480,-00.000265,-00.000953*67"
1711824206.8997831,79,1711824206,893382310,imu1_frame,79,1711824206,893382310,imu1_frame,0.41033626,-0.19632343,0.87495049,0.16596054,"(0.0, 0.0, 0.0, 0.0, 0.0, 0.0, 0.0, 0.0, 0.0)",0.000731,-0.000767,-0.000789,"(0.0, 0.0, 0.0, 0.0, 0.0, 0.0, 0.0, 0.0, 0.0)",-1.164,0.049,-9.769,"(0.0, 0.0, 0.0, 0.0, 0.0, 0.0, 0.0, 0.0, 0.0)",79,1711824206,893382310,imu1_frame,-1.2820000000000001e-05,5.469000000000001e-05,3.273e-05,"(0.0, 0.0, 0.0, 0.0, 0.0, 0.0, 0.0, 0.0, 0.0)","$VNYMR,+134.879,-007.183,-000.340,-00.1282,+00.5469,+00.3273,-01.164,+00.049,-09.769,+00.000731,-00.000767,-00.000789*6B"
1711824206.9476306,80,1711824206,941250324,imu1_frame,80,1711824206,941250324,imu1_frame,0.40838882,-0.19715953,0.8756364,0.16615528,"(0.0, 0.0, 0.0, 0.0, 0.0, 0.0, 0.0, 0.0, 0.0)",-0.001187,-0.000443,0.001517,"(0.0, 0.0, 0.0, 0.0, 0.0, 0.0, 0.0, 0.0, 0.0)",-1.148,0.028,-9.766,"(0.0, 0.0, 0.0, 0.0, 0.0, 0.0, 0.0, 0.0, 0.0)",80,1711824206,941250324,imu1_frame,-1.273e-05,5.423e-05,3.35e-05,"(0.0, 0.0, 0.0, 0.0, 0.0, 0.0, 0.0, 0.0, 0.0)","$VNYMR,+134.879,-007.179,-000.342,-00.1273,+00.5423,+00.3350,-01.148,+00.028,-09.766,-00.001187,-00.000443,+00.001517*61"
1711824206.9998655,81,1711824206,993387460,imu1_frame,81,1711824206,993387460,imu1_frame,0.40942374,-0.19940338,0.87454633,0.16667094,"(0.0, 0.0, 0.0, 0.0, 0.0, 0.0, 0.0, 0.0, 0.0)",-0.000643,-0.001502,0.000462,"(0.0, 0.0, 0.0, 0.0, 0.0, 0.0, 0.0, 0.0, 0.0)",-1.185,0.091,-9.813,"(0.0, 0.0, 0.0, 0.0, 0.0, 0.0, 0.0, 0.0, 0.0)",81,1711824206,993387460,imu1_frame,-1.2290000000000001e-05,5.468e-05,3.363e-05,"(0.0, 0.0, 0.0, 0.0, 0.0, 0.0, 0.0, 0.0, 0.0)","$VNYMR,+134.881,-007.182,-000.348,-00.1229,+00.5468,+00.3363,-01.185,+00.091,-09.813,-00.000643,-00.001502,+00.000462*6F"
1711824207.0477042,82,1711824207,41302680,imu1_frame,82,1711824207,41302680,imu1_frame,0.40996841,-0.19920692,0.87440862,0.16628913,"(0.0, 0.0, 0.0, 0.0, 0.0, 0.0, 0.0, 0.0, 0.0)",0.001682,-0.000361,0.000141,"(0.0, 0.0, 0.0, 0.0, 0.0, 0.0, 0.0, 0.0, 0.0)",-1.228,0.076,-9.846,"(0.0, 0.0, 0.0, 0.0, 0.0, 0.0, 0.0, 0.0, 0.0)",82,1711824207,41302680,imu1_frame,-1.2410000000000001e-05,5.411e-05,3.325e-05,"(0.0, 0.0, 0.0, 0.0, 0.0, 0.0, 0.0, 0.0, 0.0)","$VNYMR,+134.882,-007.183,-000.348,-00.1241,+00.5411,+00.3325,-01.228,+00.076,-09.846,+00.001682,-00.000361,+00.000141*6E"
1711824207.1002066,83,1711824207,93314647,imu1_frame,83,1711824207,93314647,imu1_frame,0.40922809,-0.19808245,0.87506519,0.16600187,"(0.0, 0.0, 0.0, 0.0, 0.0, 0.0, 0.0, 0.0, 0.0)",0.000897,0.001174,-0.000392,"(0.0, 0.0, 0.0, 0.0, 0.0, 0.0, 0.0, 0.0, 0.0)",-1.227,0.082,-9.861,"(0.0, 0.0, 0.0, 0.0, 0.0, 0.0, 0.0, 0.0, 0.0)",83,1711824207,93314647,imu1_frame,-1.2590000000000001e-05,5.537e-05,3.222e-05,"(0.0, 0.0, 0.0, 0.0, 0.0, 0.0, 0.0, 0.0, 0.0)","$VNYMR,+134.881,-007.181,-000.345,-00.1259,+00.5537,+00.3222,-01.227,+00.082,-09.861,+00.000897,+00.001174,-00.000392*69"
1711824207.146963,84,1711824207,141290426,imu1_frame,84,1711824207,141290426,imu1_frame,0.40939389,-0.19720728,0.87526284,0.16559256,"(0.0, 0.0, 0.0, 0.0, 0.0, 0.0, 0.0, 0.0, 0.0)",-0.000431,0.001809,3.2e-05,"(0.0, 0.0, 0.0, 0.0, 0.0, 0.0, 0.0, 0.0, 0.0)",-1.234,0.043,-9.852,"(0.0, 0.0, 0.0, 0.0, 0.0, 0.0, 0.0, 0.0, 0.0)",84,1711824207,141290426,imu1_frame,-1.283e-05,5.4120000000000004e-05,3.273e-05,"(0.0, 0.0, 0.0, 0.0, 0.0, 0.0, 0.0, 0.0, 0.0)","$VNYMR,+134.881,-007.181,-000.343,-00.1283,+00.5412,+00.3273,-01.234,+00.043,-09.852,-00.000431,+00.001809,+00.000032*6F"
1711824207.2009995,85,1711824207,193329334,imu1_frame,85,1711824207,193329334,imu1_frame,0.41071255,-0.19527008,0.87529619,0.1644426,"(0.0, 0.0, 0.0, 0.0, 0.0, 0.0, 0.0, 0.0, 0.0)",0.001056,0.000272,0.001224,"(0.0, 0.0, 0.0, 0.0, 0.0, 0.0, 0.0, 0.0, 0.0)",-1.253,0.05,-9.84,"(0.0, 0.0, 0.0, 0.0, 0.0, 0.0, 0.0, 0.0, 0.0)",85,1711824207,193329334,imu1_frame,-1.261e-05,5.446e-05,3.261e-05,"(0.0, 0.0, 0.0, 0.0, 0.0, 0.0, 0.0, 0.0, 0.0)","$VNYMR,+134.882,-007.183,-000.339,-00.1261,+00.5446,+00.3261,-01.253,+00.050,-09.840,+00.001056,+00.000272,+00.001224*6C"
1711824207.2494242,86,1711824207,241490125,imu1_frame,86,1711824207,241490125,imu1_frame,0.41016961,-0.19546591,0.87543479,0.16482685,"(0.0, 0.0, 0.0, 0.0, 0.0, 0.0, 0.0, 0.0, 0.0)",-0.002448,0.000578,0.001294,"(0.0, 0.0, 0.0, 0.0, 0.0, 0.0, 0.0, 0.0, 0.0)",-1.156,0.044,-9.897,"(0.0, 0.0, 0.0, 0.0, 0.0, 0.0, 0.0, 0.0, 0.0)",86,1711824207,241490125,imu1_frame,-1.2920000000000002e-05,5.4810000000000005e-05,3.2850000000000006e-05,"(0.0, 0.0, 0.0, 0.0, 0.0, 0.0, 0.0, 0.0, 0.0)","$VNYMR,+134.881,-007.182,-000.339,-00.1292,+00.5481,+00.3285,-01.156,+00.044,-09.897,-00.002448,+00.000578,+00.001294*62"
1711824207.2988455,87,1711824207,293368339,imu1_frame,87,1711824207,293368339,imu1_frame,0.40858577,-0.19675105,0.87580212,0.16527957,"(0.0, 0.0, 0.0, 0.0, 0.0, 0.0, 0.0, 0.0, 0.0)",-0.00198,0.000504,-0.000232,"(0.0, 0.0, 0.0, 0.0, 0.0, 0.0, 0.0, 0.0, 0.0)",-1.206,0.085,-9.917,"(0.0, 0.0, 0.0, 0.0, 0.0, 0.0, 0.0, 0.0, 0.0)",87,1711824207,293368339,imu1_frame,-1.2180000000000002e-05,5.491000000000001e-05,3.325e-05,"(0.0, 0.0, 0.0, 0.0, 0.0, 0.0, 0.0, 0.0, 0.0)","$VNYMR,+134.881,-007.179,-000.342,-00.1218,+00.5491,+00.3325,-01.206,+00.085,-09.917,-00.001980,+00.000504,-00.000232*6A"
1711824207.3520947,88,1711824207,345425605,imu1_frame,88,1711824207,345425605,imu1_frame,0.40932708,-0.19787781,0.87514808,0.16556432,"(0.0, 0.0, 0.0, 0.0, 0.0, 0.0, 0.0, 0.0, 0.0)",-0.000491,0.000545,0.000564,"(0.0, 0.0, 0.0, 0.0, 0.0, 0.0, 0.0, 0.0, 0.0)",-1.209,0.037,-9.871,"(0.0, 0.0, 0.0, 0.0, 0.0, 0.0, 0.0, 0.0, 0.0)",88,1711824207,345425605,imu1_frame,-1.2720000000000002e-05,5.469000000000001e-05,3.362e-05,"(0.0, 0.0, 0.0, 0.0, 0.0, 0.0, 0.0, 0.0, 0.0)","$VNYMR,+134.882,-007.181,-000.345,-00.1272,+00.5469,+00.3362,-01.209,+00.037,-09.871,-00.000491,+00.000545,+00.000564*6D"
1711824207.3943172,89,1711824207,389429330,imu1_frame,89,1711824207,389429330,imu1_frame,0.40934335,-0.19811071,0.87513181,0.16533142,"(0.0, 0.0, 0.0, 0.0, 0.0, 0.0, 0.0, 0.0, 0.0)",-0.000412,0.000537,-4.8e-05,"(0.0, 0.0, 0.0, 0.0, 0.0, 0.0, 0.0, 0.0, 0.0)",-1.254,0.062,-9.863,"(0.0, 0.0, 0.0, 0.0, 0.0, 0.0, 0.0, 0.0, 0.0)",89,1711824207,389429330,imu1_frame,-1.2290000000000001e-05,5.468e-05,3.287e-05,"(0.0, 0.0, 0.0, 0.0, 0.0, 0.0, 0.0, 0.0, 0.0)","$VNYMR,+134.883,-007.181,-000.346,-00.1229,+00.5468,+00.3287,-01.254,+00.062,-09.863,-00.000412,+00.000537,-00.000048*62"
1711824207.4718425,90,1711824207,465348720,imu1_frame,90,1711824207,465348720,imu1_frame,0.40871627,-0.1970139,0.87585248,0.16437447,"(0.0, 0.0, 0.0, 0.0, 0.0, 0.0, 0.0, 0.0, 0.0)",0.000388,0.000996,-0.000604,"(0.0, 0.0, 0.0, 0.0, 0.0, 0.0, 0.0, 0.0, 0.0)",-1.179,0.039,-9.821,"(0.0, 0.0, 0.0, 0.0, 0.0, 0.0, 0.0, 0.0, 0.0)",90,1711824207,465348720,imu1_frame,-1.305e-05,5.4130000000000005e-05,3.324e-05,"(0.0, 0.0, 0.0, 0.0, 0.0, 0.0, 0.0, 0.0, 0.0)","$VNYMR,+134.884,-007.179,-000.344,-00.1305,+00.5413,+00.3324,-01.179,+00.039,-09.821,+00.000388,+00.000996,-00.000604*64"
1711824207.5230978,91,1711824207,517322063,imu1_frame,91,1711824207,517322063,imu1_frame,0.40780883,-0.19676266,0.8763085,0.16449872,"(0.0, 0.0, 0.0, 0.0, 0.0, 0.0, 0.0, 0.0, 0.0)",0.001465,0.000829,-0.001411,"(0.0, 0.0, 0.0, 0.0, 0.0, 0.0, 0.0, 0.0, 0.0)",-1.207,0.046,-9.783,"(0.0, 0.0, 0.0, 0.0, 0.0, 0.0, 0.0, 0.0, 0.0)",91,1711824207,517322063,imu1_frame,-1.252e-05,5.4000000000000005e-05,3.338e-05,"(0.0, 0.0, 0.0, 0.0, 0.0, 0.0, 0.0, 0.0, 0.0)","$VNYMR,+134.883,-007.177,-000.343,-00.1252,+00.5400,+00.3338,-01.207,+00.046,-09.783,+00.001465,+00.000829,-00.001411*64"
1711824207.5757163,92,1711824207,569255590,imu1_frame,92,1711824207,569255590,imu1_frame,0.40618922,-0.19584945,0.87738179,0.16387346,"(0.0, 0.0, 0.0, 0.0, 0.0, 0.0, 0.0, 0.0, 0.0)",-0.001758,0.000203,-0.001184,"(0.0, 0.0, 0.0, 0.0, 0.0, 0.0, 0.0, 0.0, 0.0)",-1.194,0.065,-9.809,"(0.0, 0.0, 0.0, 0.0, 0.0, 0.0, 0.0, 0.0, 0.0)",92,1711824207,569255590,imu1_frame,-1.294e-05,5.4130000000000005e-05,3.299e-05,"(0.0, 0.0, 0.0, 0.0, 0.0, 0.0, 0.0, 0.0, 0.0)","$VNYMR,+134.883,-007.173,-000.341,-00.1294,+00.5413,+00.3299,-01.194,+00.065,-09.809,-00.001758,+00.000203,-00.001184*65"
1711824207.6184735,93,1711824207,613273620,imu1_frame,93,1711824207,613273620,imu1_frame,0.40708138,-0.19586795,0.87694374,0.16398222,"(0.0, 0.0, 0.0, 0.0, 0.0, 0.0, 0.0, 0.0, 0.0)",-0.000318,1.7e-05,-0.000561,"(0.0, 0.0, 0.0, 0.0, 0.0, 0.0, 0.0, 0.0, 0.0)",-1.204,0.058,-9.791,"(0.0, 0.0, 0.0, 0.0, 0.0, 0.0, 0.0, 0.0, 0.0)",93,1711824207,613273620,imu1_frame,-1.27e-05,5.515e-05,3.247e-05,"(0.0, 0.0, 0.0, 0.0, 0.0, 0.0, 0.0, 0.0, 0.0)","$VNYMR,+134.883,-007.175,-000.341,-00.1270,+00.5515,+00.3247,-01.204,+00.058,-09.791,-00.000318,+00.000017,-00.000561*6F"
1711824207.6963646,94,1711824207,689335107,imu1_frame,94,1711824207,689335107,imu1_frame,0.40764135,-0.19590792,0.87679015,0.16336358,"(0.0, 0.0, 0.0, 0.0, 0.0, 0.0, 0.0, 0.0, 0.0)",-0.000853,0.00145,-0.001598,"(0.0, 0.0, 0.0, 0.0, 0.0, 0.0, 0.0, 0.0, 0.0)",-1.344,0.02,-9.865,"(0.0, 0.0, 0.0, 0.0, 0.0, 0.0, 0.0, 0.0, 0.0)",94,1711824207,689335107,imu1_frame,-1.3039999999999999e-05,5.424e-05,3.323e-05,"(0.0, 0.0, 0.0, 0.0, 0.0, 0.0, 0.0, 0.0, 0.0)","$VNYMR,+134.885,-007.176,-000.342,-00.1304,+00.5424,+00.3323,-01.344,+00.020,-09.865,-00.000853,+00.001450,-00.001598*60"
1711824207.7487383,95,1711824207,741767644,imu1_frame,95,1711824207,741767644,imu1_frame,0.40765773,-0.19614248,0.87677376,0.16312902,"(0.0, 0.0, 0.0, 0.0, 0.0, 0.0, 0.0, 0.0, 0.0)",-0.000458,-4.5e-05,0.00028,"(0.0, 0.0, 0.0, 0.0, 0.0, 0.0, 0.0, 0.0, 0.0)",-1.254,0.068,-9.88,"(0.0, 0.0, 0.0, 0.0, 0.0, 0.0, 0.0, 0.0, 0.0)",95,1711824207,741767644,imu1_frame,-1.25e-05,5.469000000000001e-05,3.236e-05,"(0.0, 0.0, 0.0, 0.0, 0.0, 0.0, 0.0, 0.0, 0.0)","$VNYMR,+134.886,-007.176,-000.343,-00.1250,+00.5469,+00.3236,-01.254,+00.068,-09.880,-00.000458,-00.000045,+00.000280*60"
1711824207.8002064,96,1711824207,793321132,imu1_frame,96,1711824207,793321132,imu1_frame,0.40641778,-0.19591429,0.8775123,0.16252487,"(0.0, 0.0, 0.0, 0.0, 0.0, 0.0, 0.0, 0.0, 0.0)",0.000795,-2e-05,-0.000502,"(0.0, 0.0, 0.0, 0.0, 0.0, 0.0, 0.0, 0.0, 0.0)",-1.27,0.067,-9.828,"(0.0, 0.0, 0.0, 0.0, 0.0, 0.0, 0.0, 0.0, 0.0)",96,1711824207,793321132,imu1_frame,-1.2950000000000001e-05,5.378e-05,3.324e-05,"(0.0, 0.0, 0.0, 0.0, 0.0, 0.0, 0.0, 0.0, 0.0)","$VNYMR,+134.887,-007.173,-000.343,-00.1295,+00.5378,+00.3324,-01.270,+00.067,-09.828,+00.000795,-00.000020,-00.000502*6F"
1711824207.8522553,97,1711824207,845369577,imu1_frame,97,1711824207,845369577,imu1_frame,0.40658011,-0.19503668,0.87770778,0.16211837,"(0.0, 0.0, 0.0, 0.0, 0.0, 0.0, 0.0, 0.0, 0.0)",0.000131,-0.000531,-0.000556,"(0.0, 0.0, 0.0, 0.0, 0.0, 0.0, 0.0, 0.0, 0.0)",-1.268,0.06,-9.865,"(0.0, 0.0, 0.0, 0.0, 0.0, 0.0, 0.0, 0.0, 0.0)",97,1711824207,845369577,imu1_frame,-1.25e-05,5.469000000000001e-05,3.274e-05,"(0.0, 0.0, 0.0, 0.0, 0.0, 0.0, 0.0, 0.0, 0.0)","$VNYMR,+134.887,-007.173,-000.341,-00.1250,+00.5469,+00.3274,-01.268,+00.060,-09.865,+00.000131,-00.000531,-00.000556*6C"
1711824207.8979948,98,1711824207,893356323,imu1_frame,98,1711824207,893356323,imu1_frame,0.40640922,-0.19418295,0.87818519,0.16098229,"(0.0, 0.0, 0.0, 0.0, 0.0, 0.0, 0.0, 0.0, 0.0)",0.000694,-0.000211,0.000495,"(0.0, 0.0, 0.0, 0.0, 0.0, 0.0, 0.0, 0.0, 0.0)",-1.25,0.03,-9.819,"(0.0, 0.0, 0.0, 0.0, 0.0, 0.0, 0.0, 0.0, 0.0)",98,1711824207,893356323,imu1_frame,-1.2839999999999999e-05,5.4120000000000004e-05,3.324e-05,"(0.0, 0.0, 0.0, 0.0, 0.0, 0.0, 0.0, 0.0, 0.0)","$VNYMR,+134.889,-007.172,-000.340,-00.1284,+00.5412,+00.3324,-01.250,+00.030,-09.819,+00.000694,-00.000211,+00.000495*63"
1711824207.9518325,99,1711824207,945320129,imu1_frame,99,1711824207,945320129,imu1_frame,0.40766715,-0.19464582,0.87743174,0.16135066,"(0.0, 0.0, 0.0, 0.0, 0.0, 0.0, 0.0, 0.0, 0.0)",-0.00073,-0.000602,-0.000157,"(0.0, 0.0, 0.0, 0.0, 0.0, 0.0, 0.0, 0.0, 0.0)",-1.184,0.069,-9.767,"(0.0, 0.0, 0.0, 0.0, 0.0, 0.0, 0.0, 0.0, 0.0)",99,1711824207,945320129,imu1_frame,-1.2720000000000002e-05,5.435e-05,3.286e-05,"(0.0, 0.0, 0.0, 0.0, 0.0, 0.0, 0.0, 0.0, 0.0)","$VNYMR,+134.889,-007.175,-000.341,-00.1272,+00.5435,+00.3286,-01.184,+00.069,-09.767,-00.000730,-00.000602,-00.000157*62"
1711824207.9959795,100,1711824207,989372968,imu1_frame,100,1711824207,989372968,imu1_frame,0.40782829,-0.19376829,0.87762595,0.16094291,"(0.0, 0.0, 0.0, 0.0, 0.0, 0.0, 0.0, 0.0, 0.0)",8.1e-05,-0.001475,-0.00011,"(0.0, 0.0, 0.0, 0.0, 0.0, 0.0, 0.0, 0.0, 0.0)",-1.175,0.04,-9.767,"(0.0, 0.0, 0.0, 0.0, 0.0, 0.0, 0.0, 0.0, 0.0)",100,1711824207,989372968,imu1_frame,-1.2820000000000001e-05,5.492e-05,3.336e-05,"(0.0, 0.0, 0.0, 0.0, 0.0, 0.0, 0.0, 0.0, 0.0)","$VNYMR,+134.889,-007.175,-000.339,-00.1282,+00.5492,+00.3336,-01.175,+00.040,-09.767,+00.000081,-00.001475,-00.000110*6B"
1711824208.0499833,101,1711824208,45339584,imu1_frame,101,1711824208,45339584,imu1_frame,0.40776442,-0.19444197,0.87751231,0.16091192,"(0.0, 0.0, 0.0, 0.0, 0.0, 0.0, 0.0, 0.0, 0.0)",-0.000731,-0.000409,0.001212,"(0.0, 0.0, 0.0, 0.0, 0.0, 0.0, 0.0, 0.0, 0.0)",-1.171,0.071,-9.831,"(0.0, 0.0, 0.0, 0.0, 0.0, 0.0, 0.0, 0.0, 0.0)",101,1711824208,45339584,imu1_frame,-1.283e-05,5.424e-05,3.324e-05,"(0.0, 0.0, 0.0, 0.0, 0.0, 0.0, 0.0, 0.0, 0.0)","$VNYMR,+134.890,-007.175,-000.341,-00.1283,+00.5424,+00.3324,-01.171,+00.071,-09.831,-00.000731,-00.000409,+00.001212*6F"
1711824208.09972,102,1711824208,93302249,imu1_frame,102,1711824208,93302249,imu1_frame,0.40787859,-0.19447292,0.87757566,0.16023829,"(0.0, 0.0, 0.0, 0.0, 0.0, 0.0, 0.0, 0.0, 0.0)",0.000629,0.000795,0.000796,"(0.0, 0.0, 0.0, 0.0, 0.0, 0.0, 0.0, 0.0, 0.0)",-1.177,0.079,-9.844,"(0.0, 0.0, 0.0, 0.0, 0.0, 0.0, 0.0, 0.0, 0.0)",102,1711824208,93302249,imu1_frame,-1.2420000000000001e-05,5.4000000000000005e-05,3.313e-05,"(0.0, 0.0, 0.0, 0.0, 0.0, 0.0, 0.0, 0.0, 0.0)","$VNYMR,+134.892,-007.175,-000.342,-00.1242,+00.5400,+00.3313,-01.177,+00.079,-09.844,+00.000629,+00.000795,+00.000796*6B"
1711824208.1477902,103,1711824208,141371965,imu1_frame,103,1711824208,141371965,imu1_frame,0.40832453,-0.19447998,0.87735655,0.16029382,"(0.0, 0.0, 0.0, 0.0, 0.0, 0.0, 0.0, 0.0, 0.0)",-0.001232,-0.000905,-0.001024,"(0.0, 0.0, 0.0, 0.0, 0.0, 0.0, 0.0, 0.0, 0.0)",-1.2,0.084,-9.813,"(0.0, 0.0, 0.0, 0.0, 0.0, 0.0, 0.0, 0.0, 0.0)",103,1711824208,141371965,imu1_frame,-1.271e-05,5.492e-05,3.273e-05,"(0.0, 0.0, 0.0, 0.0, 0.0, 0.0, 0.0, 0.0, 0.0)","$VNYMR,+134.892,-007.176,-000.342,-00.1271,+00.5492,+00.3273,-01.200,+00.084,-09.813,-00.001232,-00.000905,-00.001024*66"
1711824208.1990576,104,1711824208,193417787,imu1_frame,104,1711824208,193417787,imu1_frame,0.40975892,-0.19429601,0.87677803,0.16002181,"(0.0, 0.0, 0.0, 0.0, 0.0, 0.0, 0.0, 0.0, 0.0)",0.000263,0.00023,0.001205,"(0.0, 0.0, 0.0, 0.0, 0.0, 0.0, 0.0, 0.0, 0.0)",-1.244,0.053,-9.842,"(0.0, 0.0, 0.0, 0.0, 0.0, 0.0, 0.0, 0.0, 0.0)",104,1711824208,193417787,imu1_frame,-1.2410000000000001e-05,5.4340000000000005e-05,3.325e-05,"(0.0, 0.0, 0.0, 0.0, 0.0, 0.0, 0.0, 0.0, 0.0)","$VNYMR,+134.893,-007.179,-000.342,-00.1241,+00.5434,+00.3325,-01.244,+00.053,-09.842,+00.000263,+00.000230,+00.001205*64"
1711824208.24323,105,1711824208,237294673,imu1_frame,105,1711824208,237294673,imu1_frame,0.4108098,-0.19343281,0.87653177,0.159722,"(0.0, 0.0, 0.0, 0.0, 0.0, 0.0, 0.0, 0.0, 0.0)",-0.001648,0.000253,0.001237,"(0.0, 0.0, 0.0, 0.0, 0.0, 0.0, 0.0, 0.0, 0.0)",-1.355,0.054,-9.994,"(0.0, 0.0, 0.0, 0.0, 0.0, 0.0, 0.0, 0.0, 0.0)",105,1711824208,237294673,imu1_frame,-1.261e-05,5.4800000000000004e-05,3.26e-05,"(0.0, 0.0, 0.0, 0.0, 0.0, 0.0, 0.0, 0.0, 0.0)","$VNYMR,+134.893,-007.181,-000.340,-00.1261,+00.5480,+00.3260,-01.355,+00.054,-09.994,-00.001648,+00.000253,+00.001237*6E"
1711824208.323011,106,1711824208,317183256,imu1_frame,106,1711824208,317183256,imu1_frame,0.40993575,-0.19365265,0.87695487,0.15937845,"(0.0, 0.0, 0.0, 0.0, 0.0, 0.0, 0.0, 0.0, 0.0)",-0.000683,-0.001271,-0.000385,"(0.0, 0.0, 0.0, 0.0, 0.0, 0.0, 0.0, 0.0, 0.0)",-1.195,0.089,-9.821,"(0.0, 0.0, 0.0, 0.0, 0.0, 0.0, 0.0, 0.0, 0.0)",106,1711824208,317183256,imu1_frame,-1.2720000000000002e-05,5.446e-05,3.261e-05,"(0.0, 0.0, 0.0, 0.0, 0.0, 0.0, 0.0, 0.0, 0.0)","$VNYMR,+134.894,-007.179,-000.341,-00.1272,+00.5446,+00.3261,-01.195,+00.089,-09.821,-00.000683,-00.001271,-00.000385*69"
1711824208.3752747,107,1711824208,369308471,imu1_frame,107,1711824208,369308471,imu1_frame,0.40987338,-0.19432459,0.87684056,0.15934991,"(0.0, 0.0, 0.0, 0.0, 0.0, 0.0, 0.0, 0.0, 0.0)",0.000487,-0.000718,0.000538,"(0.0, 0.0, 0.0, 0.0, 0.0, 0.0, 0.0, 0.0, 0.0)",-1.203,0.065,-9.826,"(0.0, 0.0, 0.0, 0.0, 0.0, 0.0, 0.0, 0.0, 0.0)",107,1711824208,369308471,imu1_frame,-1.281e-05,5.492e-05,3.2090000000000006e-05,"(0.0, 0.0, 0.0, 0.0, 0.0, 0.0, 0.0, 0.0, 0.0)","$VNYMR,+134.895,-007.179,-000.343,-00.1281,+00.5492,+00.3209,-01.203,+00.065,-09.826,+00.000487,-00.000718,+00.000538*65"
1711824208.4238622,108,1711824208,417269706,imu1_frame,108,1711824208,417269706,imu1_frame,0.40934808,-0.19475697,0.87696298,0.15949864,"(0.0, 0.0, 0.0, 0.0, 0.0, 0.0, 0.0, 0.0, 0.0)",0.000119,-0.000334,-0.000619,"(0.0, 0.0, 0.0, 0.0, 0.0, 0.0, 0.0, 0.0, 0.0)",-1.175,0.063,-9.762,"(0.0, 0.0, 0.0, 0.0, 0.0, 0.0, 0.0, 0.0, 0.0)",108,1711824208,417269706,imu1_frame,-1.283e-05,5.4120000000000004e-05,3.261e-05,"(0.0, 0.0, 0.0, 0.0, 0.0, 0.0, 0.0, 0.0, 0.0)","$VNYMR,+134.895,-007.178,-000.344,-00.1283,+00.5412,+00.3261,-01.175,+00.063,-09.762,+00.000119,-00.000334,-00.000619*62"
1711824208.474927,109,1711824208,469300746,imu1_frame,109,1711824208,469300746,imu1_frame,0.40987338,-0.19432459,0.87684056,0.15934991,"(0.0, 0.0, 0.0, 0.0, 0.0, 0.0, 0.0, 0.0, 0.0)",-0.000194,0.000971,-0.000335,"(0.0, 0.0, 0.0, 0.0, 0.0, 0.0, 0.0, 0.0, 0.0)",-1.21,-0.041,-9.834,"(0.0, 0.0, 0.0, 0.0, 0.0, 0.0, 0.0, 0.0, 0.0)",109,1711824208,469300746,imu1_frame,-1.281e-05,5.504e-05,3.196e-05,"(0.0, 0.0, 0.0, 0.0, 0.0, 0.0, 0.0, 0.0, 0.0)","$VNYMR,+134.895,-007.179,-000.343,-00.1281,+00.5504,+00.3196,-01.210,-00.041,-09.834,-00.000194,+00.000971,-00.000335*64"
1711824208.5199733,110,1711824208,513355731,imu1_frame,110,1711824208,513355731,imu1_frame,0.41047809,-0.19345396,0.87681455,0.15899543,"(0.0, 0.0, 0.0, 0.0, 0.0, 0.0, 0.0, 0.0, 0.0)",-0.000756,0.001327,0.000419,"(0.0, 0.0, 0.0, 0.0, 0.0, 0.0, 0.0, 0.0, 0.0)",-1.213,0.08,-9.853,"(0.0, 0.0, 0.0, 0.0, 0.0, 0.0, 0.0, 0.0, 0.0)",110,1711824208,513355731,imu1_frame,-1.2720000000000002e-05,5.4579999999999996e-05,3.324e-05,"(0.0, 0.0, 0.0, 0.0, 0.0, 0.0, 0.0, 0.0, 0.0)","$VNYMR,+134.895,-007.180,-000.341,-00.1272,+00.5458,+00.3324,-01.213,+00.080,-09.853,-00.000756,+00.001327,+00.000419*69"
1711824208.5723813,111,1711824208,565345525,imu1_frame,111,1711824208,565345525,imu1_frame,0.41055754,-0.19301553,0.87691117,0.15879017,"(0.0, 0.0, 0.0, 0.0, 0.0, 0.0, 0.0, 0.0, 0.0)",-0.000261,-0.000522,0.000676,"(0.0, 0.0, 0.0, 0.0, 0.0, 0.0, 0.0, 0.0, 0.0)",-1.245,0.056,-9.89,"(0.0, 0.0, 0.0, 0.0, 0.0, 0.0, 0.0, 0.0, 0.0)",111,1711824208,565345525,imu1_frame,-1.273e-05,5.4010000000000006e-05,3.287e-05,"(0.0, 0.0, 0.0, 0.0, 0.0, 0.0, 0.0, 0.0, 0.0)","$VNYMR,+134.895,-007.180,-000.340,-00.1273,+00.5401,+00.3287,-01.245,+00.056,-09.890,-00.000261,-00.000522,+00.000676*64"
1711824208.6227067,112,1711824208,617478132,imu1_frame,112,1711824208,617478132,imu1_frame,0.41022577,-0.19303753,0.87719295,0.15806284,"(0.0, 0.0, 0.0, 0.0, 0.0, 0.0, 0.0, 0.0, 0.0)",0.000205,0.00075,6e-06,"(0.0, 0.0, 0.0, 0.0, 0.0, 0.0, 0.0, 0.0, 0.0)",-1.253,0.052,-9.851,"(0.0, 0.0, 0.0, 0.0, 0.0, 0.0, 0.0, 0.0, 0.0)",112,1711824208,617478132,imu1_frame,-1.252e-05,5.4000000000000005e-05,3.3e-05,"(0.0, 0.0, 0.0, 0.0, 0.0, 0.0, 0.0, 0.0, 0.0)","$VNYMR,+134.897,-007.179,-000.341,-00.1252,+00.5400,+00.3300,-01.253,+00.052,-09.851,+00.000205,+00.000750,+00.000006*67"
1711824208.6760273,113,1711824208,669330835,imu1_frame,113,1711824208,669330835,imu1_frame,0.41051302,-0.19392027,0.87677962,0.15852913,"(0.0, 0.0, 0.0, 0.0, 0.0, 0.0, 0.0, 0.0, 0.0)",-0.001569,0.000464,-0.000522,"(0.0, 0.0, 0.0, 0.0, 0.0, 0.0, 0.0, 0.0, 0.0)",-1.288,0.063,-9.852,"(0.0, 0.0, 0.0, 0.0, 0.0, 0.0, 0.0, 0.0, 0.0)",113,1711824208,669330835,imu1_frame,-1.2600000000000001e-05,5.492e-05,3.235e-05,"(0.0, 0.0, 0.0, 0.0, 0.0, 0.0, 0.0, 0.0, 0.0)","$VNYMR,+134.897,-007.180,-000.343,-00.1260,+00.5492,+00.3235,-01.288,+00.063,-09.852,-00.001569,+00.000464,-00.000522*62"
1711824208.7227254,114,1711824208,717564821,imu1_frame,114,1711824208,717564821,imu1_frame,0.41078185,-0.19456953,0.87638298,0.15922891,"(0.0, 0.0, 0.0, 0.0, 0.0, 0.0, 0.0, 0.0, 0.0)",-0.000404,-0.000809,-4e-05,"(0.0, 0.0, 0.0, 0.0, 0.0, 0.0, 0.0, 0.0, 0.0)",-1.278,0.09,-9.871,"(0.0, 0.0, 0.0, 0.0, 0.0, 0.0, 0.0, 0.0, 0.0)",114,1711824208,717564821,imu1_frame,-1.2820000000000001e-05,5.4579999999999996e-05,3.324e-05,"(0.0, 0.0, 0.0, 0.0, 0.0, 0.0, 0.0, 0.0, 0.0)","$VNYMR,+134.896,-007.181,-000.344,-00.1282,+00.5458,+00.3324,-01.278,+00.090,-09.871,-00.000404,-00.000809,-00.000040*67"
1711824208.7798295,115,1711824208,773371696,imu1_frame,115,1711824208,773371696,imu1_frame,0.41113436,-0.19328201,0.87673549,0.15794139,"(0.0, 0.0, 0.0, 0.0, 0.0, 0.0, 0.0, 0.0, 0.0)",-0.000313,4.5e-05,0.000314,"(0.0, 0.0, 0.0, 0.0, 0.0, 0.0, 0.0, 0.0, 0.0)",-1.205,0.033,-9.882,"(0.0, 0.0, 0.0, 0.0, 0.0, 0.0, 0.0, 0.0, 0.0)",115,1711824208,773371696,imu1_frame,-1.2820000000000001e-05,5.469000000000001e-05,3.26e-05,"(0.0, 0.0, 0.0, 0.0, 0.0, 0.0, 0.0, 0.0, 0.0)","$VNYMR,+134.898,-007.181,-000.342,-00.1282,+00.5469,+00.3260,-01.205,+00.033,-09.882,-00.000313,+00.000045,+00.000314*60"
1711824208.8211071,116,1711824208,813356876,imu1_frame,116,1711824208,813356876,imu1_frame,0.41003393,-0.19194912,0.87768385,0.15715842,"(0.0, 0.0, 0.0, 0.0, 0.0, 0.0, 0.0, 0.0, 0.0)",0.000658,-0.000671,-0.000499,"(0.0, 0.0, 0.0, 0.0, 0.0, 0.0, 0.0, 0.0, 0.0)",-1.254,0.022,-9.901,"(0.0, 0.0, 0.0, 0.0, 0.0, 0.0, 0.0, 0.0, 0.0)",116,1711824208,813356876,imu1_frame,-1.2820000000000001e-05,5.4810000000000005e-05,3.311e-05,"(0.0, 0.0, 0.0, 0.0, 0.0, 0.0, 0.0, 0.0, 0.0)","$VNYMR,+134.898,-007.178,-000.339,-00.1282,+00.5481,+00.3311,-01.254,+00.022,-09.901,+00.000658,-00.000671,-00.000499*6A"
1711824208.8963592,117,1711824208,889409542,imu1_frame,117,1711824208,889409542,imu1_frame,0.41065392,-0.19131096,0.87763853,0.15656976,"(0.0, 0.0, 0.0, 0.0, 0.0, 0.0, 0.0, 0.0, 0.0)",-0.000753,-9.3e-05,0.000657,"(0.0, 0.0, 0.0, 0.0, 0.0, 0.0, 0.0, 0.0, 0.0)",-1.21,0.091,-9.773,"(0.0, 0.0, 0.0, 0.0, 0.0, 0.0, 0.0, 0.0, 0.0)",117,1711824208,889409542,imu1_frame,-1.24e-05,5.446e-05,3.287e-05,"(0.0, 0.0, 0.0, 0.0, 0.0, 0.0, 0.0, 0.0, 0.0)","$VNYMR,+134.899,-007.179,-000.338,-00.1240,+00.5446,+00.3287,-01.210,+00.091,-09.773,-00.000753,-00.000093,+00.000657*63"
1711824208.9523323,118,1711824208,945266008,imu1_frame,118,1711824208,945266008,imu1_frame,0.41191217,-0.19176652,0.87688276,0.15694137,"(0.0, 0.0, 0.0, 0.0, 0.0, 0.0, 0.0, 0.0, 0.0)",-0.000133,0.00059,0.000504,"(0.0, 0.0, 0.0, 0.0, 0.0, 0.0, 0.0, 0.0, 0.0)",-1.204,0.065,-9.86,"(0.0, 0.0, 0.0, 0.0, 0.0, 0.0, 0.0, 0.0, 0.0)",118,1711824208,945266008,imu1_frame,-1.283e-05,5.435e-05,3.337e-05,"(0.0, 0.0, 0.0, 0.0, 0.0, 0.0, 0.0, 0.0, 0.0)","$VNYMR,+134.899,-007.182,-000.339,-00.1283,+00.5435,+00.3337,-01.204,+00.065,-09.860,-00.000133,+00.000590,+00.000504*61"
1711824208.9944203,119,1711824208,989360094,imu1_frame,119,1711824208,989360094,imu1_frame,0.4114843,-0.19199379,0.87708542,0.15665317,"(0.0, 0.0, 0.0, 0.0, 0.0, 0.0, 0.0, 0.0, 0.0)",-0.001493,0.001088,-0.000745,"(0.0, 0.0, 0.0, 0.0, 0.0, 0.0, 0.0, 0.0, 0.0)",-1.247,0.098,-9.897,"(0.0, 0.0, 0.0, 0.0, 0.0, 0.0, 0.0, 0.0, 0.0)",119,1711824208,989360094,imu1_frame,-1.24e-05,5.457e-05,3.223e-05,"(0.0, 0.0, 0.0, 0.0, 0.0, 0.0, 0.0, 0.0, 0.0)","$VNYMR,+134.900,-007.181,-000.340,-00.1240,+00.5457,+00.3223,-01.247,+00.098,-09.897,-00.001493,+00.001088,-00.000745*6D"
1711824209.0706742,120,1711824209,65246582,imu1_frame,120,1711824209,65246582,imu1_frame,0.4106474,-0.19268355,0.87747094,0.15584128,"(0.0, 0.0, 0.0, 0.0, 0.0, 0.0, 0.0, 0.0, 0.0)",-0.000156,-0.001803,0.000112,"(0.0, 0.0, 0.0, 0.0, 0.0, 0.0, 0.0, 0.0, 0.0)",-1.243,0.086,-9.798,"(0.0, 0.0, 0.0, 0.0, 0.0, 0.0, 0.0, 0.0, 0.0)",120,1711824209,65246582,imu1_frame,-1.305e-05,5.3790000000000005e-05,3.299e-05,"(0.0, 0.0, 0.0, 0.0, 0.0, 0.0, 0.0, 0.0, 0.0)","$VNYMR,+134.903,-007.179,-000.343,-00.1305,+00.5379,+00.3299,-01.243,+00.086,-09.798,-00.000156,-00.001803,+00.000112*69"
1711824209.1260421,121,1711824209,117324829,imu1_frame,121,1711824209,117324829,imu1_frame,0.41012383,-0.19311802,0.87759395,0.15598952,"(0.0, 0.0, 0.0, 0.0, 0.0, 0.0, 0.0, 0.0, 0.0)",1.7e-05,-0.001084,0.000201,"(0.0, 0.0, 0.0, 0.0, 0.0, 0.0, 0.0, 0.0, 0.0)",-1.154,0.058,-9.807,"(0.0, 0.0, 0.0, 0.0, 0.0, 0.0, 0.0, 0.0, 0.0)",121,1711824209,117324829,imu1_frame,-1.2410000000000001e-05,5.4340000000000005e-05,3.312e-05,"(0.0, 0.0, 0.0, 0.0, 0.0, 0.0, 0.0, 0.0, 0.0)","$VNYMR,+134.903,-007.178,-000.344,-00.1241,+00.5434,+00.3312,-01.154,+00.058,-09.807,+00.000017,-00.001084,+00.000201*69"
1711824209.1729183,122,1711824209,165306568,imu1_frame,122,1711824209,165306568,imu1_frame,0.41124862,-0.19181051,0.87744351,0.15548691,"(0.0, 0.0, 0.0, 0.0, 0.0, 0.0, 0.0, 0.0, 0.0)",0.000671,0.000352,-0.000357,"(0.0, 0.0, 0.0, 0.0, 0.0, 0.0, 0.0, 0.0, 0.0)",-1.176,0.026,-9.842,"(0.0, 0.0, 0.0, 0.0, 0.0, 0.0, 0.0, 0.0, 0.0)",122,1711824209,165306568,imu1_frame,-1.283e-05,5.424e-05,3.197e-05,"(0.0, 0.0, 0.0, 0.0, 0.0, 0.0, 0.0, 0.0, 0.0)","$VNYMR,+134.903,-007.180,-000.341,-00.1283,+00.5424,+00.3197,-01.176,+00.026,-09.842,+00.000671,+00.000352,-00.000357*6E"
1711824209.226029,123,1711824209,221282482,imu1_frame,123,1711824209,221282482,imu1_frame,0.41175392,-0.19114357,0.87733732,0.15557015,"(0.0, 0.0, 0.0, 0.0, 0.0, 0.0, 0.0, 0.0, 0.0)",0.000511,0.000594,-5.9e-05,"(0.0, 0.0, 0.0, 0.0, 0.0, 0.0, 0.0, 0.0, 0.0)",-1.186,0.062,-9.876,"(0.0, 0.0, 0.0, 0.0, 0.0, 0.0, 0.0, 0.0, 0.0)",123,1711824209,221282482,imu1_frame,-1.25e-05,5.492e-05,3.324e-05,"(0.0, 0.0, 0.0, 0.0, 0.0, 0.0, 0.0, 0.0, 0.0)","$VNYMR,+134.902,-007.181,-000.339,-00.1250,+00.5492,+00.3324,-01.186,+00.062,-09.876,+00.000511,+00.000594,-00.000059*64"
1711824209.275996,124,1711824209,269440650,imu1_frame,124,1711824209,269440650,imu1_frame,0.41173625,-0.19091076,0.87735499,0.15580295,"(0.0, 0.0, 0.0, 0.0, 0.0, 0.0, 0.0, 0.0, 0.0)",-0.000727,0.000329,-0.001165,"(0.0, 0.0, 0.0, 0.0, 0.0, 0.0, 0.0, 0.0, 0.0)",-1.169,0.043,-9.86,"(0.0, 0.0, 0.0, 0.0, 0.0, 0.0, 0.0, 0.0, 0.0)",124,1711824209,269440650,imu1_frame,-1.2620000000000001e-05,5.435e-05,3.223e-05,"(0.0, 0.0, 0.0, 0.0, 0.0, 0.0, 0.0, 0.0, 0.0)","$VNYMR,+134.901,-007.181,-000.338,-00.1262,+00.5435,+00.3223,-01.169,+00.043,-09.860,-00.000727,+00.000329,-00.001165*67"
1711824209.3240469,125,1711824209,317419528,imu1_frame,125,1711824209,317419528,imu1_frame,0.41113474,-0.19178299,0.87738359,0.15615873,"(0.0, 0.0, 0.0, 0.0, 0.0, 0.0, 0.0, 0.0, 0.0)",7.5e-05,-0.000534,0.001175,"(0.0, 0.0, 0.0, 0.0, 0.0, 0.0, 0.0, 0.0, 0.0)",-1.253,0.065,-9.9,"(0.0, 0.0, 0.0, 0.0, 0.0, 0.0, 0.0, 0.0, 0.0)",125,1711824209,317419528,imu1_frame,-1.2600000000000001e-05,5.492e-05,3.26e-05,"(0.0, 0.0, 0.0, 0.0, 0.0, 0.0, 0.0, 0.0, 0.0)","$VNYMR,+134.901,-007.180,-000.340,-00.1260,+00.5492,+00.3260,-01.253,+00.065,-09.900,+00.000075,-00.000534,+00.001175*65"
1711824209.374103,126,1711824209,369336605,imu1_frame,126,1711824209,369336605,imu1_frame,0.41078497,-0.19157254,0.87768126,0.15566399,"(0.0, 0.0, 0.0, 0.0, 0.0, 0.0, 0.0, 0.0, 0.0)",-0.000687,0.001219,-8e-06,"(0.0, 0.0, 0.0, 0.0, 0.0, 0.0, 0.0, 0.0, 0.0)",-1.264,0.074,-9.884,"(0.0, 0.0, 0.0, 0.0, 0.0, 0.0, 0.0, 0.0, 0.0)",126,1711824209,369336605,imu1_frame,-1.2720000000000002e-05,5.435e-05,3.324e-05,"(0.0, 0.0, 0.0, 0.0, 0.0, 0.0, 0.0, 0.0, 0.0)","$VNYMR,+134.902,-007.179,-000.340,-00.1272,+00.5435,+00.3324,-01.264,+00.074,-09.884,-00.000687,+00.001219,-00.000008*68"
1711824209.4277287,127,1711824209,421353101,imu1_frame,127,1711824209,421353101,imu1_frame,0.41212149,-0.19158697,0.8770215,0.15583195,"(0.0, 0.0, 0.0, 0.0, 0.0, 0.0, 0.0, 0.0, 0.0)",-0.001275,0.000663,-0.000869,"(0.0, 0.0, 0.0, 0.0, 0.0, 0.0, 0.0, 0.0, 0.0)",-1.277,0.079,-9.794,"(0.0, 0.0, 0.0, 0.0, 0.0, 0.0, 0.0, 0.0, 0.0)",127,1711824209,421353101,imu1_frame,-1.27e-05,5.515e-05,3.26e-05,"(0.0, 0.0, 0.0, 0.0, 0.0, 0.0, 0.0, 0.0, 0.0)","$VNYMR,+134.902,-007.182,-000.340,-00.1270,+00.5515,+00.3260,-01.277,+00.079,-09.794,-00.001275,+00.000663,-00.000869*62"
1711824209.4758809,128,1711824209,469360828,imu1_frame,128,1711824209,469360828,imu1_frame,0.41206163,-0.19225789,0.87690749,0.15580556,"(0.0, 0.0, 0.0, 0.0, 0.0, 0.0, 0.0, 0.0, 0.0)",-0.00195,-0.000235,0.000114,"(0.0, 0.0, 0.0, 0.0, 0.0, 0.0, 0.0, 0.0, 0.0)",-1.258,0.063,-9.848,"(0.0, 0.0, 0.0, 0.0, 0.0, 0.0, 0.0, 0.0, 0.0)",128,1711824209,469360828,imu1_frame,-1.2420000000000001e-05,5.3769999999999995e-05,3.313e-05,"(0.0, 0.0, 0.0, 0.0, 0.0, 0.0, 0.0, 0.0, 0.0)","$VNYMR,+134.903,-007.182,-000.342,-00.1242,+00.5377,+00.3313,-01.258,+00.063,-09.848,-00.001950,-00.000235,+00.000114*67"
1711824209.524271,129,1711824209,517322540,imu1_frame,129,1711824209,517322540,imu1_frame,0.41213949,-0.19181941,0.87700351,0.15559951,"(0.0, 0.0, 0.0, 0.0, 0.0, 0.0, 0.0, 0.0, 0.0)",0.001033,-0.000123,0.000391,"(0.0, 0.0, 0.0, 0.0, 0.0, 0.0, 0.0, 0.0, 0.0)",-1.251,0.047,-9.865,"(0.0, 0.0, 0.0, 0.0, 0.0, 0.0, 0.0, 0.0, 0.0)",129,1711824209,517322540,imu1_frame,-1.271e-05,5.492e-05,3.247e-05,"(0.0, 0.0, 0.0, 0.0, 0.0, 0.0, 0.0, 0.0, 0.0)","$VNYMR,+134.903,-007.182,-000.341,-00.1271,+00.5492,+00.3247,-01.251,+00.047,-09.865,+00.001033,-00.000123,+00.000391*69"
1711824209.5714903,130,1711824209,565293788,imu1_frame,130,1711824209,565293788,imu1_frame,0.41124862,-0.19181051,0.87744351,0.15548691,"(0.0, 0.0, 0.0, 0.0, 0.0, 0.0, 0.0, 0.0, 0.0)",-0.001655,0.000162,0.00024,"(0.0, 0.0, 0.0, 0.0, 0.0, 0.0, 0.0, 0.0, 0.0)",-1.259,0.034,-9.883,"(0.0, 0.0, 0.0, 0.0, 0.0, 0.0, 0.0, 0.0, 0.0)",130,1711824209,565293788,imu1_frame,-1.283e-05,5.447e-05,3.311e-05,"(0.0, 0.0, 0.0, 0.0, 0.0, 0.0, 0.0, 0.0, 0.0)","$VNYMR,+134.903,-007.180,-000.341,-00.1283,+00.5447,+00.3311,-01.259,+00.034,-09.883,-00.001655,+00.000162,+00.000240*66"
1711824209.622902,131,1711824209,617258548,imu1_frame,131,1711824209,617258548,imu1_frame,0.41074369,-0.1924782,0.87754875,0.15540252,"(0.0, 0.0, 0.0, 0.0, 0.0, 0.0, 0.0, 0.0, 0.0)",-0.000613,-0.000153,0.000381,"(0.0, 0.0, 0.0, 0.0, 0.0, 0.0, 0.0, 0.0, 0.0)",-1.249,-0.007,-9.815,"(0.0, 0.0, 0.0, 0.0, 0.0, 0.0, 0.0, 0.0, 0.0)",131,1711824209,617258548,imu1_frame,-1.3150000000000001e-05,5.4130000000000005e-05,3.336e-05,"(0.0, 0.0, 0.0, 0.0, 0.0, 0.0, 0.0, 0.0, 0.0)","$VNYMR,+134.904,-007.179,-000.343,-00.1315,+00.5413,+00.3336,-01.249,-00.007,-09.815,-00.000613,-00.000153,+00.000381*6C"
1711824209.6759422,132,1711824209,669332742,imu1_frame,132,1711824209,669332742,imu1_frame,0.41058808,-0.19335566,0.87735584,0.15581319,"(0.0, 0.0, 0.0, 0.0, 0.0, 0.0, 0.0, 0.0, 0.0)",0.000318,-0.000628,-0.000661,"(0.0, 0.0, 0.0, 0.0, 0.0, 0.0, 0.0, 0.0, 0.0)",-1.2,0.024,-9.848,"(0.0, 0.0, 0.0, 0.0, 0.0, 0.0, 0.0, 0.0, 0.0)",132,1711824209,669332742,imu1_frame,-1.261e-05,5.469000000000001e-05,3.299e-05,"(0.0, 0.0, 0.0, 0.0, 0.0, 0.0, 0.0, 0.0, 0.0)","$VNYMR,+134.904,-007.179,-000.345,-00.1261,+00.5469,+00.3299,-01.200,+00.024,-09.848,+00.000318,-00.000628,-00.000661*6D"
1711824209.724065,133,1711824209,717284202,imu1_frame,133,1711824209,717284202,imu1_frame,0.41062609,-0.19382239,0.87731783,0.15534646,"(0.0, 0.0, 0.0, 0.0, 0.0, 0.0, 0.0, 0.0, 0.0)",0.000196,-0.000918,-0.000679,"(0.0, 0.0, 0.0, 0.0, 0.0, 0.0, 0.0, 0.0, 0.0)",-1.174,0.053,-9.8,"(0.0, 0.0, 0.0, 0.0, 0.0, 0.0, 0.0, 0.0, 0.0)",133,1711824209,717284202,imu1_frame,-1.261e-05,5.457e-05,3.172e-05,"(0.0, 0.0, 0.0, 0.0, 0.0, 0.0, 0.0, 0.0, 0.0)","$VNYMR,+134.906,-007.179,-000.347,-00.1261,+00.5457,+00.3172,-01.174,+00.053,-09.800,+00.000196,-00.000918,-00.000679*6B"
1711824209.775028,134,1711824209,769860982,imu1_frame,134,1711824209,769860982,imu1_frame,0.41037418,-0.19340886,0.87769206,0.15441078,"(0.0, 0.0, 0.0, 0.0, 0.0, 0.0, 0.0, 0.0, 0.0)",0.001275,-0.000593,-0.000977,"(0.0, 0.0, 0.0, 0.0, 0.0, 0.0, 0.0, 0.0, 0.0)",-1.207,0.053,-9.824,"(0.0, 0.0, 0.0, 0.0, 0.0, 0.0, 0.0, 0.0, 0.0)",134,1711824209,769860982,imu1_frame,-1.294e-05,5.424e-05,3.273e-05,"(0.0, 0.0, 0.0, 0.0, 0.0, 0.0, 0.0, 0.0, 0.0)","$VNYMR,+134.908,-007.178,-000.347,-00.1294,+00.5424,+00.3273,-01.207,+00.053,-09.824,+00.001275,-00.000593,-00.000977*68"
1711824209.8239238,135,1711824209,817371606,imu1_frame,135,1711824209,817371606,imu1_frame,0.41047084,-0.19320365,0.87776915,0.15397192,"(0.0, 0.0, 0.0, 0.0, 0.0, 0.0, 0.0, 0.0, 0.0)",0.000589,0.000943,0.000988,"(0.0, 0.0, 0.0, 0.0, 0.0, 0.0, 0.0, 0.0, 0.0)",-1.221,0.035,-9.838,"(0.0, 0.0, 0.0, 0.0, 0.0, 0.0, 0.0, 0.0, 0.0)",135,1711824209,817371606,imu1_frame,-1.249e-05,5.503000000000001e-05,3.222e-05,"(0.0, 0.0, 0.0, 0.0, 0.0, 0.0, 0.0, 0.0, 0.0)","$VNYMR,+134.909,-007.178,-000.347,-00.1249,+00.5503,+00.3222,-01.221,+00.035,-09.838,+00.000589,+00.000943,+00.000988*64"
1711824209.879753,136,1711824209,873422145,imu1_frame,136,1711824209,873422145,imu1_frame,0.41097397,-0.19253409,0.87766571,0.15405817,"(0.0, 0.0, 0.0, 0.0, 0.0, 0.0, 0.0, 0.0, 0.0)",0.001446,0.000171,0.000157,"(0.0, 0.0, 0.0, 0.0, 0.0, 0.0, 0.0, 0.0, 0.0)",-1.236,0.099,-9.82,"(0.0, 0.0, 0.0, 0.0, 0.0, 0.0, 0.0, 0.0, 0.0)",136,1711824209,873422145,imu1_frame,-1.2920000000000002e-05,5.504e-05,3.2590000000000005e-05,"(0.0, 0.0, 0.0, 0.0, 0.0, 0.0, 0.0, 0.0, 0.0)","$VNYMR,+134.908,-007.179,-000.345,-00.1292,+00.5504,+00.3259,-01.236,+00.099,-09.820,+00.001446,+00.000171,+00.000157*62"
1711824209.9249692,137,1711824209,913364171,imu1_frame,137,1711824209,913364171,imu1_frame,0.41050924,-0.19229739,0.87790418,0.15423402,"(0.0, 0.0, 0.0, 0.0, 0.0, 0.0, 0.0, 0.0, 0.0)",7.2e-05,0.000583,-0.000685,"(0.0, 0.0, 0.0, 0.0, 0.0, 0.0, 0.0, 0.0, 0.0)",-1.211,0.068,-9.853,"(0.0, 0.0, 0.0, 0.0, 0.0, 0.0, 0.0, 0.0, 0.0)",137,1711824209,913364171,imu1_frame,-1.231e-05,5.411e-05,3.3e-05,"(0.0, 0.0, 0.0, 0.0, 0.0, 0.0, 0.0, 0.0, 0.0)","$VNYMR,+134.907,-007.178,-000.344,-00.1231,+00.5411,+00.3300,-01.211,+00.068,-09.853,+00.000072,+00.000583,-00.000685*66"
1711824209.9729662,138,1711824209,965394496,imu1_frame,138,1711824209,965394496,imu1_frame,0.41045134,-0.19296999,0.87778865,0.15420558,"(0.0, 0.0, 0.0, 0.0, 0.0, 0.0, 0.0, 0.0, 0.0)",-0.000974,0.000414,7.8e-05,"(0.0, 0.0, 0.0, 0.0, 0.0, 0.0, 0.0, 0.0, 0.0)",-1.219,0.07,-9.841,"(0.0, 0.0, 0.0, 0.0, 0.0, 0.0, 0.0, 0.0, 0.0)",138,1711824209,965394496,imu1_frame,-1.261e-05,5.469000000000001e-05,3.311e-05,"(0.0, 0.0, 0.0, 0.0, 0.0, 0.0, 0.0, 0.0, 0.0)","$VNYMR,+134.908,-007.178,-000.346,-00.1261,+00.5469,+00.3311,-01.219,+00.070,-09.841,-00.000974,+00.000414,+00.000078*67"
1711824210.0259194,139,1711824210,21287441,imu1_frame,139,1711824210,21287441,imu1_frame,0.40948283,-0.19340312,0.87813005,0.1542941,"(0.0, 0.0, 0.0, 0.0, 0.0, 0.0, 0.0, 0.0, 0.0)",-0.00048,0.00042,3.6e-05,"(0.0, 0.0, 0.0, 0.0, 0.0, 0.0, 0.0, 0.0, 0.0)",-1.229,0.083,-9.895,"(0.0, 0.0, 0.0, 0.0, 0.0, 0.0, 0.0, 0.0, 0.0)",139,1711824210,21287441,imu1_frame,-1.252e-05,5.4120000000000004e-05,3.312e-05,"(0.0, 0.0, 0.0, 0.0, 0.0, 0.0, 0.0, 0.0, 0.0)","$VNYMR,+134.908,-007.176,-000.347,-00.1252,+00.5412,+00.3312,-01.229,+00.083,-09.895,-00.000480,+00.000420,+00.000036*6A"
1711824210.0761826,140,1711824210,69270849,imu1_frame,140,1711824210,69270849,imu1_frame,0.40907663,-0.19386944,0.87830908,0.15376643,"(0.0, 0.0, 0.0, 0.0, 0.0, 0.0, 0.0, 0.0, 0.0)",-0.000311,0.001881,0.000535,"(0.0, 0.0, 0.0, 0.0, 0.0, 0.0, 0.0, 0.0, 0.0)",-1.28,0.061,-9.818,"(0.0, 0.0, 0.0, 0.0, 0.0, 0.0, 0.0, 0.0, 0.0)",140,1711824210,69270849,imu1_frame,-1.271e-05,5.492e-05,3.298e-05,"(0.0, 0.0, 0.0, 0.0, 0.0, 0.0, 0.0, 0.0, 0.0)","$VNYMR,+134.910,-007.175,-000.349,-00.1271,+00.5492,+00.3298,-01.280,+00.061,-09.818,-00.000311,+00.001881,+00.000535*61"
1711824210.118653,141,1711824210,113286495,imu1_frame,141,1711824210,113286495,imu1_frame,0.40954254,-0.194106,0.87807033,0.15359122,"(0.0, 0.0, 0.0, 0.0, 0.0, 0.0, 0.0, 0.0, 0.0)",0.000126,-0.001808,0.001784,"(0.0, 0.0, 0.0, 0.0, 0.0, 0.0, 0.0, 0.0, 0.0)",-1.303,0.076,-9.868,"(0.0, 0.0, 0.0, 0.0, 0.0, 0.0, 0.0, 0.0, 0.0)",141,1711824210,113286495,imu1_frame,-1.283e-05,5.424e-05,3.299e-05,"(0.0, 0.0, 0.0, 0.0, 0.0, 0.0, 0.0, 0.0, 0.0)","$VNYMR,+134.911,-007.176,-000.350,-00.1283,+00.5424,+00.3299,-01.303,+00.076,-09.868,+00.000126,-00.001808,+00.001784*6F"
1711824210.1947038,142,1711824210,189342975,imu1_frame,142,1711824210,189342975,imu1_frame,0.41014164,-0.19322995,0.8780452,0.15324051,"(0.0, 0.0, 0.0, 0.0, 0.0, 0.0, 0.0, 0.0, 0.0)",0.000643,-0.000222,0.000746,"(0.0, 0.0, 0.0, 0.0, 0.0, 0.0, 0.0, 0.0, 0.0)",-1.243,0.083,-9.884,"(0.0, 0.0, 0.0, 0.0, 0.0, 0.0, 0.0, 0.0, 0.0)",142,1711824210,189342975,imu1_frame,-1.283e-05,5.424e-05,3.299e-05,"(0.0, 0.0, 0.0, 0.0, 0.0, 0.0, 0.0, 0.0, 0.0)","$VNYMR,+134.911,-007.177,-000.348,-00.1283,+00.5424,+00.3299,-01.243,+00.083,-09.884,+00.000643,-00.000222,+00.000746*62"
1711824210.2749453,143,1711824210,269312143,imu1_frame,143,1711824210,269312143,imu1_frame,0.40914921,-0.1919356,0.87904593,0.15177582,"(0.0, 0.0, 0.0, 0.0, 0.0, 0.0, 0.0, 0.0, 0.0)",6.1e-05,-0.000429,0.000153,"(0.0, 0.0, 0.0, 0.0, 0.0, 0.0, 0.0, 0.0, 0.0)",-1.172,0.043,-9.808,"(0.0, 0.0, 0.0, 0.0, 0.0, 0.0, 0.0, 0.0, 0.0)",143,1711824210,269312143,imu1_frame,-1.2720000000000002e-05,5.469000000000001e-05,3.324e-05,"(0.0, 0.0, 0.0, 0.0, 0.0, 0.0, 0.0, 0.0, 0.0)","$VNYMR,+134.913,-007.174,-000.346,-00.1272,+00.5469,+00.3324,-01.172,+00.043,-09.808,+00.000061,-00.000429,+00.000153*6D"
1711824210.3211176,144,1711824210,313292026,imu1_frame,144,1711824210,313292026,imu1_frame,0.4096911,-0.19173277,0.87890344,0.15139514,"(0.0, 0.0, 0.0, 0.0, 0.0, 0.0, 0.0, 0.0, 0.0)",0.001213,-0.000228,9e-06,"(0.0, 0.0, 0.0, 0.0, 0.0, 0.0, 0.0, 0.0, 0.0)",-1.16,0.023,-9.826,"(0.0, 0.0, 0.0, 0.0, 0.0, 0.0, 0.0, 0.0, 0.0)",144,1711824210,313292026,imu1_frame,-1.303e-05,5.470000000000001e-05,3.247e-05,"(0.0, 0.0, 0.0, 0.0, 0.0, 0.0, 0.0, 0.0, 0.0)","$VNYMR,+134.914,-007.175,-000.346,-00.1303,+00.5470,+00.3247,-01.160,+00.023,-09.826,+00.001213,-00.000228,+00.000009*66"
1711824210.424126,145,1711824210,417310953,imu1_frame,145,1711824210,417310953,imu1_frame,0.41136317,-0.19308375,0.87779495,0.15157516,"(0.0, 0.0, 0.0, 0.0, 0.0, 0.0, 0.0, 0.0, 0.0)",0.0009,4.4e-05,-0.000873,"(0.0, 0.0, 0.0, 0.0, 0.0, 0.0, 0.0, 0.0, 0.0)",-1.199,0.062,-9.863,"(0.0, 0.0, 0.0, 0.0, 0.0, 0.0, 0.0, 0.0, 0.0)",145,1711824210,417310953,imu1_frame,-1.273e-05,5.423e-05,3.337e-05,"(0.0, 0.0, 0.0, 0.0, 0.0, 0.0, 0.0, 0.0, 0.0)","$VNYMR,+134.916,-007.179,-000.350,-00.1273,+00.5423,+00.3337,-01.199,+00.062,-09.863,+00.000900,+00.000044,-00.000873*6E"
1711824210.480453,146,1711824210,473357200,imu1_frame,146,1711824210,473357200,imu1_frame,0.4114389,-0.19264483,0.87789138,0.15136946,"(0.0, 0.0, 0.0, 0.0, 0.0, 0.0, 0.0, 0.0, 0.0)",0.001437,-4.9e-05,0.000815,"(0.0, 0.0, 0.0, 0.0, 0.0, 0.0, 0.0, 0.0, 0.0)",-1.268,0.115,-9.875,"(0.0, 0.0, 0.0, 0.0, 0.0, 0.0, 0.0, 0.0, 0.0)",146,1711824210,473357200,imu1_frame,-1.271e-05,5.4810000000000005e-05,3.26e-05,"(0.0, 0.0, 0.0, 0.0, 0.0, 0.0, 0.0, 0.0, 0.0)","$VNYMR,+134.916,-007.179,-000.349,-00.1271,+00.5481,+00.3260,-01.268,+00.115,-09.875,+00.001437,-00.000049,+00.000815*61"
1711824210.523453,147,1711824210,517358064,imu1_frame,147,1711824210,517358064,imu1_frame,0.4106989,-0.19176476,0.87852155,0.15083959,"(0.0, 0.0, 0.0, 0.0, 0.0, 0.0, 0.0, 0.0, 0.0)",-0.000196,0.001184,0.000543,"(0.0, 0.0, 0.0, 0.0, 0.0, 0.0, 0.0, 0.0, 0.0)",-1.273,0.11,-9.869,"(0.0, 0.0, 0.0, 0.0, 0.0, 0.0, 0.0, 0.0, 0.0)",147,1711824210,517358064,imu1_frame,-1.2620000000000001e-05,5.435e-05,3.261e-05,"(0.0, 0.0, 0.0, 0.0, 0.0, 0.0, 0.0, 0.0, 0.0)","$VNYMR,+134.916,-007.177,-000.347,-00.1262,+00.5435,+00.3261,-01.273,+00.110,-09.869,-00.000196,+00.001184,+00.000543*6F"
1711824210.5798564,148,1711824210,573372840,imu1_frame,148,1711824210,573372840,imu1_frame,0.41131555,-0.19112101,0.87847369,0.15025398,"(0.0, 0.0, 0.0, 0.0, 0.0, 0.0, 0.0, 0.0, 0.0)",-0.00134,0.000796,-0.001092,"(0.0, 0.0, 0.0, 0.0, 0.0, 0.0, 0.0, 0.0, 0.0)",-1.287,0.084,-9.853,"(0.0, 0.0, 0.0, 0.0, 0.0, 0.0, 0.0, 0.0, 0.0)",148,1711824210,573372840,imu1_frame,-1.2600000000000001e-05,5.4800000000000004e-05,3.21e-05,"(0.0, 0.0, 0.0, 0.0, 0.0, 0.0, 0.0, 0.0, 0.0)","$VNYMR,+134.917,-007.178,-000.346,-00.1260,+00.5480,+00.3210,-01.287,+00.084,-09.853,-00.001340,+00.000796,-00.001092*66"
1711824210.6272001,149,1711824210,621372938,imu1_frame,149,1711824210,621372938,imu1_frame,0.41089046,-0.19135396,0.87867195,0.149961,"(0.0, 0.0, 0.0, 0.0, 0.0, 0.0, 0.0, 0.0, 0.0)",-0.000979,-0.000425,-0.000293,"(0.0, 0.0, 0.0, 0.0, 0.0, 0.0, 0.0, 0.0, 0.0)",-1.291,0.045,-9.874,"(0.0, 0.0, 0.0, 0.0, 0.0, 0.0, 0.0, 0.0, 0.0)",149,1711824210,621372938,imu1_frame,-1.2620000000000001e-05,5.423e-05,3.299e-05,"(0.0, 0.0, 0.0, 0.0, 0.0, 0.0, 0.0, 0.0, 0.0)","$VNYMR,+134.918,-007.177,-000.347,-00.1262,+00.5423,+00.3299,-01.291,+00.045,-09.874,-00.000979,-00.000425,-00.000293*6C"
1711824210.6701899,150,1711824210,665347576,imu1_frame,150,1711824210,665347576,imu1_frame,0.41089046,-0.19135396,0.87867195,0.149961,"(0.0, 0.0, 0.0, 0.0, 0.0, 0.0, 0.0, 0.0, 0.0)",-6.2e-05,0.000653,-0.000468,"(0.0, 0.0, 0.0, 0.0, 0.0, 0.0, 0.0, 0.0, 0.0)",-1.266,0.067,-9.9,"(0.0, 0.0, 0.0, 0.0, 0.0, 0.0, 0.0, 0.0, 0.0)",150,1711824210,665347576,imu1_frame,-1.2950000000000001e-05,5.367e-05,3.299e-05,"(0.0, 0.0, 0.0, 0.0, 0.0, 0.0, 0.0, 0.0, 0.0)","$VNYMR,+134.918,-007.177,-000.347,-00.1295,+00.5367,+00.3299,-01.266,+00.067,-09.900,-00.000062,+00.000653,-00.000468*6D"
1711824210.7257826,151,1711824210,721395969,imu1_frame,151,1711824210,721395969,imu1_frame,0.41118587,-0.19223294,0.87826134,0.15043167,"(0.0, 0.0, 0.0, 0.0, 0.0, 0.0, 0.0, 0.0, 0.0)",-9.3e-05,-0.001976,-0.000487,"(0.0, 0.0, 0.0, 0.0, 0.0, 0.0, 0.0, 0.0, 0.0)",-1.294,0.042,-9.907,"(0.0, 0.0, 0.0, 0.0, 0.0, 0.0, 0.0, 0.0, 0.0)",151,1711824210,721395969,imu1_frame,-1.2620000000000001e-05,5.423e-05,3.299e-05,"(0.0, 0.0, 0.0, 0.0, 0.0, 0.0, 0.0, 0.0, 0.0)","$VNYMR,+134.918,-007.178,-000.349,-00.1262,+00.5423,+00.3299,-01.294,+00.042,-09.907,-00.000093,-00.001976,-00.000487*6E"
1711824210.775633,152,1711824210,769295454,imu1_frame,152,1711824210,769295454,imu1_frame,0.41215194,-0.19179466,0.87791907,0.15034522,"(0.0, 0.0, 0.0, 0.0, 0.0, 0.0, 0.0, 0.0, 0.0)",0.001237,-0.001087,-9.1e-05,"(0.0, 0.0, 0.0, 0.0, 0.0, 0.0, 0.0, 0.0, 0.0)",-1.254,0.061,-9.859,"(0.0, 0.0, 0.0, 0.0, 0.0, 0.0, 0.0, 0.0, 0.0)",152,1711824210,769295454,imu1_frame,-1.261e-05,5.457e-05,3.223e-05,"(0.0, 0.0, 0.0, 0.0, 0.0, 0.0, 0.0, 0.0, 0.0)","$VNYMR,+134.918,-007.180,-000.348,-00.1261,+00.5457,+00.3223,-01.254,+00.061,-09.859,+00.001237,-00.001087,-00.000091*61"
1711824210.8222687,153,1711824210,817384243,imu1_frame,153,1711824210,817384243,imu1_frame,0.41239748,-0.19071047,0.87818529,0.14949392,"(0.0, 0.0, 0.0, 0.0, 0.0, 0.0, 0.0, 0.0, 0.0)",0.000799,-0.000658,-0.000521,"(0.0, 0.0, 0.0, 0.0, 0.0, 0.0, 0.0, 0.0, 0.0)",-1.192,0.044,-9.835,"(0.0, 0.0, 0.0, 0.0, 0.0, 0.0, 0.0, 0.0, 0.0)",153,1711824210,817384243,imu1_frame,-1.3150000000000001e-05,5.402e-05,3.273e-05,"(0.0, 0.0, 0.0, 0.0, 0.0, 0.0, 0.0, 0.0, 0.0)","$VNYMR,+134.919,-007.180,-000.346,-00.1315,+00.5402,+00.3273,-01.192,+00.044,-09.835,+00.000799,-00.000658,-00.000521*66"
1711824210.8772824,154,1711824210,869322299,imu1_frame,154,1711824210,869322299,imu1_frame,0.4112513,-0.19029794,0.87899116,0.14843721,"(0.0, 0.0, 0.0, 0.0, 0.0, 0.0, 0.0, 0.0, 0.0)",-0.000381,-0.000387,0.000843,"(0.0, 0.0, 0.0, 0.0, 0.0, 0.0, 0.0, 0.0, 0.0)",-1.15,0.03,-9.78,"(0.0, 0.0, 0.0, 0.0, 0.0, 0.0, 0.0, 0.0, 0.0)",154,1711824210,869322299,imu1_frame,-1.261e-05,5.457e-05,3.21e-05,"(0.0, 0.0, 0.0, 0.0, 0.0, 0.0, 0.0, 0.0, 0.0)","$VNYMR,+134.921,-007.177,-000.346,-00.1261,+00.5457,+00.3210,-01.150,+00.030,-09.780,-00.000381,-00.000387,+00.000843*6D"
1711824210.9238453,155,1711824210,917321443,imu1_frame,155,1711824210,917321443,imu1_frame,0.41082661,-0.19053202,0.87918858,0.14814346,"(0.0, 0.0, 0.0, 0.0, 0.0, 0.0, 0.0, 0.0, 0.0)",0.00123,-0.000386,-0.000992,"(0.0, 0.0, 0.0, 0.0, 0.0, 0.0, 0.0, 0.0, 0.0)",-1.163,0.064,-9.811,"(0.0, 0.0, 0.0, 0.0, 0.0, 0.0, 0.0, 0.0, 0.0)",155,1711824210,917321443,imu1_frame,-1.281e-05,5.492e-05,3.2850000000000006e-05,"(0.0, 0.0, 0.0, 0.0, 0.0, 0.0, 0.0, 0.0, 0.0)","$VNYMR,+134.922,-007.176,-000.347,-00.1281,+00.5492,+00.3285,-01.163,+00.064,-09.811,+00.001230,-00.000386,-00.000992*65"
1711824210.9742808,156,1711824210,969378709,imu1_frame,156,1711824210,969378709,imu1_frame,0.41199377,-0.19117647,0.87836276,0.14896829,"(0.0, 0.0, 0.0, 0.0, 0.0, 0.0, 0.0, 0.0, 0.0)",-0.001097,-0.002538,-0.000772,"(0.0, 0.0, 0.0, 0.0, 0.0, 0.0, 0.0, 0.0, 0.0)",-1.221,0.116,-9.816,"(0.0, 0.0, 0.0, 0.0, 0.0, 0.0, 0.0, 0.0, 0.0)",156,1711824210,969378709,imu1_frame,-1.2720000000000002e-05,5.423e-05,3.261e-05,"(0.0, 0.0, 0.0, 0.0, 0.0, 0.0, 0.0, 0.0, 0.0)","$VNYMR,+134.921,-007.179,-000.348,-00.1272,+00.5423,+00.3261,-01.221,+00.116,-09.816,-00.001097,-00.002538,-00.000772*64"
1711824211.0342097,157,1711824211,25359869,imu1_frame,157,1711824211,25359869,imu1_frame,0.41217278,-0.19202754,0.87789823,0.15011235,"(0.0, 0.0, 0.0, 0.0, 0.0, 0.0, 0.0, 0.0, 0.0)",0.000282,0.002012,-9.3e-05,"(0.0, 0.0, 0.0, 0.0, 0.0, 0.0, 0.0, 0.0, 0.0)",-1.254,0.076,-9.817,"(0.0, 0.0, 0.0, 0.0, 0.0, 0.0, 0.0, 0.0, 0.0)",157,1711824211,25359869,imu1_frame,-1.25e-05,5.492e-05,3.273e-05,"(0.0, 0.0, 0.0, 0.0, 0.0, 0.0, 0.0, 0.0, 0.0)","$VNYMR,+134.919,-007.180,-000.349,-00.1250,+00.5492,+00.3273,-01.254,+00.076,-09.817,+00.000282,+00.002012,-00.000093*67"
1711824211.0769608,158,1711824211,65315246,imu1_frame,158,1711824211,65315246,imu1_frame,0.41184459,-0.19205474,0.87817115,0.1493802,"(0.0, 0.0, 0.0, 0.0, 0.0, 0.0, 0.0, 0.0, 0.0)",-0.000324,0.001291,0.002413,"(0.0, 0.0, 0.0, 0.0, 0.0, 0.0, 0.0, 0.0, 0.0)",-1.202,0.042,-9.869,"(0.0, 0.0, 0.0, 0.0, 0.0, 0.0, 0.0, 0.0, 0.0)",158,1711824211,65315246,imu1_frame,-1.24e-05,5.446e-05,3.249e-05,"(0.0, 0.0, 0.0, 0.0, 0.0, 0.0, 0.0, 0.0, 0.0)","$VNYMR,+134.921,-007.179,-000.350,-00.1240,+00.5446,+00.3249,-01.202,+00.042,-09.869,-00.000324,+00.001291,+00.002413*67"
1711824211.1712887,159,1711824211,165332078,imu1_frame,159,1711824211,165332078,imu1_frame,0.41023247,-0.19141151,0.87921586,0.14849384,"(0.0, 0.0, 0.0, 0.0, 0.0, 0.0, 0.0, 0.0, 0.0)",0.000251,-0.000968,-0.001551,"(0.0, 0.0, 0.0, 0.0, 0.0, 0.0, 0.0, 0.0, 0.0)",-1.206,0.061,-9.83,"(0.0, 0.0, 0.0, 0.0, 0.0, 0.0, 0.0, 0.0, 0.0)",159,1711824211,165332078,imu1_frame,-1.2620000000000001e-05,5.423e-05,3.261e-05,"(0.0, 0.0, 0.0, 0.0, 0.0, 0.0, 0.0, 0.0, 0.0)","$VNYMR,+134.922,-007.175,-000.349,-00.1262,+00.5423,+00.3261,-01.206,+00.061,-09.830,+00.000251,-00.000968,-00.001551*6D"
1711824211.221932,160,1711824211,217192888,imu1_frame,160,1711824211,217192888,imu1_frame,0.4112513,-0.19029794,0.87899116,0.14843721,"(0.0, 0.0, 0.0, 0.0, 0.0, 0.0, 0.0, 0.0, 0.0)",-4.1e-05,5.1e-05,0.00024,"(0.0, 0.0, 0.0, 0.0, 0.0, 0.0, 0.0, 0.0, 0.0)",-1.284,0.041,-9.85,"(0.0, 0.0, 0.0, 0.0, 0.0, 0.0, 0.0, 0.0, 0.0)",160,1711824211,217192888,imu1_frame,-1.219e-05,5.445e-05,3.313e-05,"(0.0, 0.0, 0.0, 0.0, 0.0, 0.0, 0.0, 0.0, 0.0)","$VNYMR,+134.921,-007.177,-000.346,-00.1219,+00.5445,+00.3313,-01.284,+00.041,-09.850,-00.000041,+00.000051,+00.000240*65"
1711824211.2736673,161,1711824211,269153594,imu1_frame,161,1711824211,269153594,imu1_frame,0.41026446,-0.19050283,0.87935367,0.14875776,"(0.0, 0.0, 0.0, 0.0, 0.0, 0.0, 0.0, 0.0, 0.0)",0.000193,0.001894,0.001195,"(0.0, 0.0, 0.0, 0.0, 0.0, 0.0, 0.0, 0.0, 0.0)",-1.276,0.04,-9.862,"(0.0, 0.0, 0.0, 0.0, 0.0, 0.0, 0.0, 0.0, 0.0)",161,1711824211,269153594,imu1_frame,-1.283e-05,5.435e-05,3.197e-05,"(0.0, 0.0, 0.0, 0.0, 0.0, 0.0, 0.0, 0.0, 0.0)","$VNYMR,+134.920,-007.175,-000.346,-00.1283,+00.5435,+00.3197,-01.276,+00.040,-09.862,+00.000193,+00.001894,+00.001195*63"
1711824211.3307347,162,1711824211,321373701,imu1_frame,162,1711824211,321373701,imu1_frame,0.40951017,-0.19076757,0.87982127,0.1477284,"(0.0, 0.0, 0.0, 0.0, 0.0, 0.0, 0.0, 0.0, 0.0)",-0.002187,0.000933,0.000537,"(0.0, 0.0, 0.0, 0.0, 0.0, 0.0, 0.0, 0.0, 0.0)",-1.302,0.093,-9.88,"(0.0, 0.0, 0.0, 0.0, 0.0, 0.0, 0.0, 0.0, 0.0)",162,1711824211,321373701,imu1_frame,-1.27e-05,5.549e-05,3.2850000000000006e-05,"(0.0, 0.0, 0.0, 0.0, 0.0, 0.0, 0.0, 0.0, 0.0)","$VNYMR,+134.923,-007.173,-000.348,-00.1270,+00.5549,+00.3285,-01.302,+00.093,-09.880,-00.002187,+00.000933,+00.000537*6F"
1711824211.3766508,163,1711824211,369366645,imu1_frame,163,1711824211,369366645,imu1_frame,0.40931011,-0.1923222,0.87951214,0.14810739,"(0.0, 0.0, 0.0, 0.0, 0.0, 0.0, 0.0, 0.0, 0.0)",4.8e-05,-0.000379,0.000509,"(0.0, 0.0, 0.0, 0.0, 0.0, 0.0, 0.0, 0.0, 0.0)",-1.317,0.096,-9.878,"(0.0, 0.0, 0.0, 0.0, 0.0, 0.0, 0.0, 0.0, 0.0)",163,1711824211,369366645,imu1_frame,-1.3150000000000001e-05,5.424e-05,3.247e-05,"(0.0, 0.0, 0.0, 0.0, 0.0, 0.0, 0.0, 0.0, 0.0)","$VNYMR,+134.924,-007.173,-000.352,-00.1315,+00.5424,+00.3247,-01.317,+00.096,-09.878,+00.000048,-00.000379,+00.000509*6A"
1711824211.4245996,164,1711824211,417339801,imu1_frame,164,1711824211,417339801,imu1_frame,0.40990452,-0.19407778,0.87869003,0.14905013,"(0.0, 0.0, 0.0, 0.0, 0.0, 0.0, 0.0, 0.0, 0.0)",-1.1e-05,0.000106,-0.000835,"(0.0, 0.0, 0.0, 0.0, 0.0, 0.0, 0.0, 0.0, 0.0)",-1.249,0.1,-9.809,"(0.0, 0.0, 0.0, 0.0, 0.0, 0.0, 0.0, 0.0, 0.0)",164,1711824211,417339801,imu1_frame,-1.271e-05,5.469000000000001e-05,3.26e-05,"(0.0, 0.0, 0.0, 0.0, 0.0, 0.0, 0.0, 0.0, 0.0)","$VNYMR,+134.924,-007.175,-000.356,-00.1271,+00.5469,+00.3260,-01.249,+00.100,-09.809,-00.000011,+00.000106,-00.000835*67"
1711824211.4736784,165,1711824211,465500116,imu1_frame,165,1711824211,465500116,imu1_frame,0.40943642,-0.1938446,0.87893042,0.14922268,"(0.0, 0.0, 0.0, 0.0, 0.0, 0.0, 0.0, 0.0, 0.0)",0.000957,-0.000486,-0.000323,"(0.0, 0.0, 0.0, 0.0, 0.0, 0.0, 0.0, 0.0, 0.0)",-1.183,0.026,-9.756,"(0.0, 0.0, 0.0, 0.0, 0.0, 0.0, 0.0, 0.0, 0.0)",165,1711824211,465500116,imu1_frame,-1.3150000000000001e-05,5.4250000000000004e-05,3.298e-05,"(0.0, 0.0, 0.0, 0.0, 0.0, 0.0, 0.0, 0.0, 0.0)","$VNYMR,+134.923,-007.174,-000.355,-00.1315,+00.5425,+00.3298,-01.183,+00.026,-09.756,+00.000957,-00.000486,-00.000323*61"
1711824211.5279412,166,1711824211,521292686,imu1_frame,166,1711824211,521292686,imu1_frame,0.41027586,-0.19188045,0.87917247,0.1480249,"(0.0, 0.0, 0.0, 0.0, 0.0, 0.0, 0.0, 0.0, 0.0)",0.000824,0.000975,0.000498,"(0.0, 0.0, 0.0, 0.0, 0.0, 0.0, 0.0, 0.0, 0.0)",-1.134,0.002,-9.764,"(0.0, 0.0, 0.0, 0.0, 0.0, 0.0, 0.0, 0.0, 0.0)",166,1711824211,521292686,imu1_frame,-1.293e-05,5.4579999999999996e-05,3.26e-05,"(0.0, 0.0, 0.0, 0.0, 0.0, 0.0, 0.0, 0.0, 0.0)","$VNYMR,+134.924,-007.175,-000.351,-00.1293,+00.5458,+00.3260,-01.134,+00.002,-09.764,+00.000824,+00.000975,+00.000498*69"
1711824211.569023,167,1711824211,565205335,imu1_frame,167,1711824211,565205335,imu1_frame,0.41051913,-0.19079595,0.87943761,0.14717485,"(0.0, 0.0, 0.0, 0.0, 0.0, 0.0, 0.0, 0.0, 0.0)",0.000572,-0.001444,0.001175,"(0.0, 0.0, 0.0, 0.0, 0.0, 0.0, 0.0, 0.0, 0.0)",-1.115,0.024,-9.813,"(0.0, 0.0, 0.0, 0.0, 0.0, 0.0, 0.0, 0.0, 0.0)",167,1711824211,565205335,imu1_frame,-1.2410000000000001e-05,5.411e-05,3.262e-05,"(0.0, 0.0, 0.0, 0.0, 0.0, 0.0, 0.0, 0.0, 0.0)","$VNYMR,+134.925,-007.175,-000.349,-00.1241,+00.5411,+00.3262,-01.115,+00.024,-09.813,+00.000572,-00.001444,+00.001175*68"
1711824211.6489735,168,1711824211,641364812,imu1_frame,168,1711824211,641364812,imu1_frame,0.41173067,-0.19190473,0.87856918,0.14753519,"(0.0, 0.0, 0.0, 0.0, 0.0, 0.0, 0.0, 0.0, 0.0)",-0.001497,-0.000554,-0.000852,"(0.0, 0.0, 0.0, 0.0, 0.0, 0.0, 0.0, 0.0, 0.0)",-1.306,0.079,-9.891,"(0.0, 0.0, 0.0, 0.0, 0.0, 0.0, 0.0, 0.0, 0.0)",168,1711824211,641364812,imu1_frame,-1.273e-05,5.423e-05,3.286e-05,"(0.0, 0.0, 0.0, 0.0, 0.0, 0.0, 0.0, 0.0, 0.0)","$VNYMR,+134.926,-007.178,-000.352,-00.1273,+00.5423,+00.3286,-01.306,+00.079,-09.891,-00.001497,-00.000554,-00.000852*63"
1711824211.7008505,169,1711824211,693425893,imu1_frame,169,1711824211,693425893,imu1_frame,0.41081811,-0.19430824,0.87823087,0.14894068,"(0.0, 0.0, 0.0, 0.0, 0.0, 0.0, 0.0, 0.0, 0.0)",-0.001687,-0.00043,-3.5e-05,"(0.0, 0.0, 0.0, 0.0, 0.0, 0.0, 0.0, 0.0, 0.0)",-1.321,0.089,-9.822,"(0.0, 0.0, 0.0, 0.0, 0.0, 0.0, 0.0, 0.0, 0.0)",169,1711824211,693425893,imu1_frame,-1.2620000000000001e-05,5.435e-05,3.312e-05,"(0.0, 0.0, 0.0, 0.0, 0.0, 0.0, 0.0, 0.0, 0.0)","$VNYMR,+134.925,-007.177,-000.357,-00.1262,+00.5435,+00.3312,-01.321,+00.089,-09.822,-00.001687,-00.000430,-00.000035*6A"
1711824211.748984,170,1711824211,741239309,imu1_frame,170,1711824211,741239309,imu1_frame,0.40997311,-0.19478086,0.87862143,0.14834705,"(0.0, 0.0, 0.0, 0.0, 0.0, 0.0, 0.0, 0.0, 0.0)",0.002024,-0.000295,0.00064,"(0.0, 0.0, 0.0, 0.0, 0.0, 0.0, 0.0, 0.0, 0.0)",-1.238,0.089,-9.81,"(0.0, 0.0, 0.0, 0.0, 0.0, 0.0, 0.0, 0.0, 0.0)",170,1711824211,741239309,imu1_frame,-1.294e-05,5.4130000000000005e-05,3.311e-05,"(0.0, 0.0, 0.0, 0.0, 0.0, 0.0, 0.0, 0.0, 0.0)","$VNYMR,+134.927,-007.175,-000.359,-00.1294,+00.5413,+00.3311,-01.238,+00.089,-09.810,+00.002024,-00.000295,+00.000640*63"
1711824211.8004196,171,1711824211,793634414,imu1_frame,171,1711824211,793634414,imu1_frame,0.40996602,-0.19328974,0.87925446,0.14655555,"(0.0, 0.0, 0.0, 0.0, 0.0, 0.0, 0.0, 0.0, 0.0)",0.000449,-0.000774,0.001271,"(0.0, 0.0, 0.0, 0.0, 0.0, 0.0, 0.0, 0.0, 0.0)",-1.183,0.042,-9.841,"(0.0, 0.0, 0.0, 0.0, 0.0, 0.0, 0.0, 0.0, 0.0)",171,1711824211,793634414,imu1_frame,-1.2620000000000001e-05,5.423e-05,3.223e-05,"(0.0, 0.0, 0.0, 0.0, 0.0, 0.0, 0.0, 0.0, 0.0)","$VNYMR,+134.930,-007.174,-000.357,-00.1262,+00.5423,+00.3223,-01.183,+00.042,-09.841,+00.000449,-00.000774,+00.001271*60"
1711824211.8493726,172,1711824211,841347694,imu1_frame,172,1711824211,841347694,imu1_frame,0.41117267,-0.19175968,0.87918055,0.14562562,"(0.0, 0.0, 0.0, 0.0, 0.0, 0.0, 0.0, 0.0, 0.0)",0.001314,-0.002471,-0.001011,"(0.0, 0.0, 0.0, 0.0, 0.0, 0.0, 0.0, 0.0, 0.0)",-1.163,0.022,-9.853,"(0.0, 0.0, 0.0, 0.0, 0.0, 0.0, 0.0, 0.0, 0.0)",172,1711824211,841347694,imu1_frame,-1.314e-05,5.459000000000001e-05,3.272e-05,"(0.0, 0.0, 0.0, 0.0, 0.0, 0.0, 0.0, 0.0, 0.0)","$VNYMR,+134.931,-007.176,-000.354,-00.1314,+00.5459,+00.3272,-01.163,+00.022,-09.853,+00.001314,-00.002471,-00.001011*6A"
1711824211.9016945,173,1711824211,893459558,imu1_frame,173,1711824211,893459558,imu1_frame,0.41260951,-0.19040583,0.87876164,0.14586633,"(0.0, 0.0, 0.0, 0.0, 0.0, 0.0, 0.0, 0.0, 0.0)",0.000147,9.2e-05,-0.000353,"(0.0, 0.0, 0.0, 0.0, 0.0, 0.0, 0.0, 0.0, 0.0)",-1.135,0.028,-9.776,"(0.0, 0.0, 0.0, 0.0, 0.0, 0.0, 0.0, 0.0, 0.0)",173,1711824211,893459558,imu1_frame,-1.2720000000000002e-05,5.4579999999999996e-05,3.273e-05,"(0.0, 0.0, 0.0, 0.0, 0.0, 0.0, 0.0, 0.0, 0.0)","$VNYMR,+134.929,-007.179,-000.350,-00.1272,+00.5458,+00.3273,-01.135,+00.028,-09.776,+00.000147,+00.000092,-00.000353*64"
1711824211.9447782,174,1711824211,941220283,imu1_frame,174,1711824211,941220283,imu1_frame,0.41206882,-0.19061409,0.87890732,0.14624456,"(0.0, 0.0, 0.0, 0.0, 0.0, 0.0, 0.0, 0.0, 0.0)",-0.000951,0.001658,0.00139,"(0.0, 0.0, 0.0, 0.0, 0.0, 0.0, 0.0, 0.0, 0.0)",-1.191,0.034,-9.825,"(0.0, 0.0, 0.0, 0.0, 0.0, 0.0, 0.0, 0.0, 0.0)",174,1711824211,941220283,imu1_frame,-1.293e-05,5.447e-05,3.197e-05,"(0.0, 0.0, 0.0, 0.0, 0.0, 0.0, 0.0, 0.0, 0.0)","$VNYMR,+134.928,-007.178,-000.350,-00.1293,+00.5447,+00.3197,-01.191,+00.034,-09.825,-00.000951,+00.001658,+00.001390*66"
1711824212.019775,175,1711824212,17113924,imu1_frame,175,1711824212,17113924,imu1_frame,0.40931683,-0.19221117,0.87995511,0.14558021,"(0.0, 0.0, 0.0, 0.0, 0.0, 0.0, 0.0, 0.0, 0.0)",0.000155,-0.002548,0.000303,"(0.0, 0.0, 0.0, 0.0, 0.0, 0.0, 0.0, 0.0, 0.0)",-1.285,0.094,-9.83,"(0.0, 0.0, 0.0, 0.0, 0.0, 0.0, 0.0, 0.0, 0.0)",175,1711824212,17113924,imu1_frame,-1.25e-05,5.457e-05,3.236e-05,"(0.0, 0.0, 0.0, 0.0, 0.0, 0.0, 0.0, 0.0, 0.0)","$VNYMR,+134.931,-007.172,-000.355,-00.1250,+00.5457,+00.3236,-01.285,+00.094,-09.830,+00.000155,-00.002548,+00.000303*69"
1711824212.098313,176,1711824212,93342542,imu1_frame,176,1711824212,93342542,imu1_frame,0.41060473,-0.19287623,0.87918287,0.14573951,"(0.0, 0.0, 0.0, 0.0, 0.0, 0.0, 0.0, 0.0, 0.0)",-6.3e-05,0.000292,-0.000845,"(0.0, 0.0, 0.0, 0.0, 0.0, 0.0, 0.0, 0.0, 0.0)",-1.256,0.075,-9.895,"(0.0, 0.0, 0.0, 0.0, 0.0, 0.0, 0.0, 0.0, 0.0)",176,1711824212,93342542,imu1_frame,-1.294e-05,5.4010000000000006e-05,3.324e-05,"(0.0, 0.0, 0.0, 0.0, 0.0, 0.0, 0.0, 0.0, 0.0)","$VNYMR,+134.932,-007.175,-000.357,-00.1294,+00.5401,+00.3324,-01.256,+00.075,-09.895,-00.000063,+00.000292,-00.000845*61"
1711824212.1558213,177,1711824212,149211883,imu1_frame,177,1711824212,149211883,imu1_frame,0.41065421,-0.1922023,0.87930253,0.1457685,"(0.0, 0.0, 0.0, 0.0, 0.0, 0.0, 0.0, 0.0, 0.0)",-0.000281,0.000259,3.6e-05,"(0.0, 0.0, 0.0, 0.0, 0.0, 0.0, 0.0, 0.0, 0.0)",-1.315,0.085,-9.903,"(0.0, 0.0, 0.0, 0.0, 0.0, 0.0, 0.0, 0.0, 0.0)",177,1711824212,149211883,imu1_frame,-1.2509999999999999e-05,5.446e-05,3.211e-05,"(0.0, 0.0, 0.0, 0.0, 0.0, 0.0, 0.0, 0.0, 0.0)","$VNYMR,+134.931,-007.175,-000.355,-00.1251,+00.5446,+00.3211,-01.315,+00.085,-09.903,-00.000281,+00.000259,+00.000036*69"
1711824212.197748,178,1711824212,189479351,imu1_frame,178,1711824212,189479351,imu1_frame,0.41059428,-0.19024061,0.87997526,0.14444509,"(0.0, 0.0, 0.0, 0.0, 0.0, 0.0, 0.0, 0.0, 0.0)",0.000498,0.000768,5.5e-05,"(0.0, 0.0, 0.0, 0.0, 0.0, 0.0, 0.0, 0.0, 0.0)",-1.253,0.02,-9.842,"(0.0, 0.0, 0.0, 0.0, 0.0, 0.0, 0.0, 0.0, 0.0)",178,1711824212,189479351,imu1_frame,-1.2720000000000002e-05,5.4579999999999996e-05,3.324e-05,"(0.0, 0.0, 0.0, 0.0, 0.0, 0.0, 0.0, 0.0, 0.0)","$VNYMR,+134.932,-007.174,-000.351,-00.1272,+00.5458,+00.3324,-01.253,+00.020,-09.842,+00.000498,+00.000768,+00.000055*64"
1711824212.2557085,179,1711824212,245589256,imu1_frame,179,1711824212,245589256,imu1_frame,0.41024343,-0.19003826,0.88026485,0.143943,"(0.0, 0.0, 0.0, 0.0, 0.0, 0.0, 0.0, 0.0, 0.0)",-0.001445,0.000142,0.000573,"(0.0, 0.0, 0.0, 0.0, 0.0, 0.0, 0.0, 0.0, 0.0)",-1.248,0.022,-9.879,"(0.0, 0.0, 0.0, 0.0, 0.0, 0.0, 0.0, 0.0, 0.0)",179,1711824212,245589256,imu1_frame,-1.263e-05,5.4000000000000005e-05,3.312e-05,"(0.0, 0.0, 0.0, 0.0, 0.0, 0.0, 0.0, 0.0, 0.0)","$VNYMR,+134.933,-007.173,-000.351,-00.1263,+00.5400,+00.3312,-01.248,+00.022,-09.879,-00.001445,+00.000142,+00.000573*62"
1711824212.300708,180,1711824212,293343544,imu1_frame,180,1711824212,293343544,imu1_frame,0.4102666,-0.19027326,0.88024168,0.143708,"(0.0, 0.0, 0.0, 0.0, 0.0, 0.0, 0.0, 0.0, 0.0)",-0.000449,-0.000715,-0.000525,"(0.0, 0.0, 0.0, 0.0, 0.0, 0.0, 0.0, 0.0, 0.0)",-1.254,0.072,-9.828,"(0.0, 0.0, 0.0, 0.0, 0.0, 0.0, 0.0, 0.0, 0.0)",180,1711824212,293343544,imu1_frame,-1.2620000000000001e-05,5.4120000000000004e-05,3.261e-05,"(0.0, 0.0, 0.0, 0.0, 0.0, 0.0, 0.0, 0.0, 0.0)","$VNYMR,+134.934,-007.173,-000.352,-00.1262,+00.5412,+00.3261,-01.254,+00.072,-09.828,-00.000449,-00.000715,-00.000525*67"
1711824212.3500044,181,1711824212,345141172,imu1_frame,181,1711824212,345141172,imu1_frame,0.40923074,-0.1911603,0.88048518,0.14399235,"(0.0, 0.0, 0.0, 0.0, 0.0, 0.0, 0.0, 0.0, 0.0)",0.000343,-9.7e-05,0.001067,"(0.0, 0.0, 0.0, 0.0, 0.0, 0.0, 0.0, 0.0, 0.0)",-1.198,0.036,-9.833,"(0.0, 0.0, 0.0, 0.0, 0.0, 0.0, 0.0, 0.0, 0.0)",181,1711824212,345141172,imu1_frame,-1.24e-05,5.468e-05,3.211e-05,"(0.0, 0.0, 0.0, 0.0, 0.0, 0.0, 0.0, 0.0, 0.0)","$VNYMR,+134.934,-007.171,-000.354,-00.1240,+00.5468,+00.3211,-01.198,+00.036,-09.833,+00.000343,-00.000097,+00.001067*62"
1711824212.395624,182,1711824212,389322280,imu1_frame,182,1711824212,389322280,imu1_frame,0.41005058,-0.1915934,0.87995528,0.14432324,"(0.0, 0.0, 0.0, 0.0, 0.0, 0.0, 0.0, 0.0, 0.0)",0.001068,7.1e-05,8.6e-05,"(0.0, 0.0, 0.0, 0.0, 0.0, 0.0, 0.0, 0.0, 0.0)",-1.195,0.023,-9.809,"(0.0, 0.0, 0.0, 0.0, 0.0, 0.0, 0.0, 0.0, 0.0)",182,1711824212,389322280,imu1_frame,-1.2620000000000001e-05,5.435e-05,3.236e-05,"(0.0, 0.0, 0.0, 0.0, 0.0, 0.0, 0.0, 0.0, 0.0)","$VNYMR,+134.934,-007.173,-000.355,-00.1262,+00.5435,+00.3236,-01.195,+00.023,-09.809,+00.001068,+00.000071,+00.000086*67"
1711824212.4467041,183,1711824212,441419363,imu1_frame,183,1711824212,441419363,imu1_frame,0.41007433,-0.19182835,0.87993153,0.1440883,"(0.0, 0.0, 0.0, 0.0, 0.0, 0.0, 0.0, 0.0, 0.0)",0.001433,-0.000552,0.001039,"(0.0, 0.0, 0.0, 0.0, 0.0, 0.0, 0.0, 0.0, 0.0)",-1.206,0.053,-9.797,"(0.0, 0.0, 0.0, 0.0, 0.0, 0.0, 0.0, 0.0, 0.0)",183,1711824212,441419363,imu1_frame,-1.283e-05,5.435e-05,3.235e-05,"(0.0, 0.0, 0.0, 0.0, 0.0, 0.0, 0.0, 0.0, 0.0)","$VNYMR,+134.935,-007.173,-000.356,-00.1283,+00.5435,+00.3235,-01.206,+00.053,-09.797,+00.001433,-00.000552,+00.001039*62"
1711824212.5053542,184,1711824212,497389554,imu1_frame,184,1711824212,497389554,imu1_frame,0.41157902,-0.1911709,0.87944639,0.14363302,"(0.0, 0.0, 0.0, 0.0, 0.0, 0.0, 0.0, 0.0, 0.0)",-0.000717,0.000994,0.000569,"(0.0, 0.0, 0.0, 0.0, 0.0, 0.0, 0.0, 0.0, 0.0)",-1.234,0.061,-9.831,"(0.0, 0.0, 0.0, 0.0, 0.0, 0.0, 0.0, 0.0, 0.0)",184,1711824212,497389554,imu1_frame,-1.2820000000000001e-05,5.469000000000001e-05,3.247e-05,"(0.0, 0.0, 0.0, 0.0, 0.0, 0.0, 0.0, 0.0, 0.0)","$VNYMR,+134.936,-007.176,-000.355,-00.1282,+00.5469,+00.3247,-01.234,+00.061,-09.831,-00.000717,+00.000994,+00.000569*6A"
1711824212.5524087,185,1711824212,545355558,imu1_frame,185,1711824212,545355558,imu1_frame,0.41073585,-0.1905046,0.88000087,0.14353578,"(0.0, 0.0, 0.0, 0.0, 0.0, 0.0, 0.0, 0.0, 0.0)",0.000325,0.002359,-0.000486,"(0.0, 0.0, 0.0, 0.0, 0.0, 0.0, 0.0, 0.0, 0.0)",-1.248,0.061,-9.845,"(0.0, 0.0, 0.0, 0.0, 0.0, 0.0, 0.0, 0.0, 0.0)",185,1711824212,545355558,imu1_frame,-1.2820000000000001e-05,5.4810000000000005e-05,3.2340000000000005e-05,"(0.0, 0.0, 0.0, 0.0, 0.0, 0.0, 0.0, 0.0, 0.0)","$VNYMR,+134.935,-007.174,-000.353,-00.1282,+00.5481,+00.3234,-01.248,+00.061,-09.845,+00.000325,+00.002359,-00.000486*6B"
1711824212.5968971,186,1711824212,589218139,imu1_frame,186,1711824212,589218139,imu1_frame,0.41019469,-0.19071335,0.88014643,0.14391311,"(0.0, 0.0, 0.0, 0.0, 0.0, 0.0, 0.0, 0.0, 0.0)",0.000343,-0.000424,0.000308,"(0.0, 0.0, 0.0, 0.0, 0.0, 0.0, 0.0, 0.0, 0.0)",-1.214,0.056,-9.849,"(0.0, 0.0, 0.0, 0.0, 0.0, 0.0, 0.0, 0.0, 0.0)",186,1711824212,589218139,imu1_frame,-1.261e-05,5.457e-05,3.299e-05,"(0.0, 0.0, 0.0, 0.0, 0.0, 0.0, 0.0, 0.0, 0.0)","$VNYMR,+134.934,-007.173,-000.353,-00.1261,+00.5457,+00.3299,-01.214,+00.056,-09.849,+00.000343,-00.000424,+00.000308*63"
1711824212.6915193,187,1711824212,689170837,imu1_frame,187,1711824212,689170837,imu1_frame,0.41080757,-0.19006458,0.88009602,0.14333039,"(0.0, 0.0, 0.0, 0.0, 0.0, 0.0, 0.0, 0.0, 0.0)",-0.000549,-0.000419,-0.000544,"(0.0, 0.0, 0.0, 0.0, 0.0, 0.0, 0.0, 0.0, 0.0)",-1.254,0.03,-9.848,"(0.0, 0.0, 0.0, 0.0, 0.0, 0.0, 0.0, 0.0, 0.0)",187,1711824212,689170837,imu1_frame,-1.261e-05,5.469000000000001e-05,3.273e-05,"(0.0, 0.0, 0.0, 0.0, 0.0, 0.0, 0.0, 0.0, 0.0)","$VNYMR,+134.935,-007.174,-000.352,-00.1261,+00.5469,+00.3273,-01.254,+00.030,-09.848,-00.000549,-00.000419,-00.000544*64"
1711824212.7468767,188,1711824212,741419792,imu1_frame,188,1711824212,741419792,imu1_frame,0.41120517,-0.19073521,0.87975968,0.1433642,"(0.0, 0.0, 0.0, 0.0, 0.0, 0.0, 0.0, 0.0, 0.0)",-0.000502,0.001455,0.000294,"(0.0, 0.0, 0.0, 0.0, 0.0, 0.0, 0.0, 0.0, 0.0)",-1.242,0.026,-9.874,"(0.0, 0.0, 0.0, 0.0, 0.0, 0.0, 0.0, 0.0, 0.0)",188,1711824212,741419792,imu1_frame,-1.2620000000000001e-05,5.423e-05,3.35e-05,"(0.0, 0.0, 0.0, 0.0, 0.0, 0.0, 0.0, 0.0, 0.0)","$VNYMR,+134.936,-007.175,-000.354,-00.1262,+00.5423,+00.3350,-01.242,+00.026,-09.874,-00.000502,+00.001455,+00.000294*6E"
1711824212.8069746,189,1711824212,793331623,imu1_frame,189,1711824212,793331623,imu1_frame,0.41172244,-0.19029136,0.87963712,0.14322137,"(0.0, 0.0, 0.0, 0.0, 0.0, 0.0, 0.0, 0.0, 0.0)",0.00021,-4.5e-05,0.000368,"(0.0, 0.0, 0.0, 0.0, 0.0, 0.0, 0.0, 0.0, 0.0)",-1.298,0.057,-9.872,"(0.0, 0.0, 0.0, 0.0, 0.0, 0.0, 0.0, 0.0, 0.0)",189,1711824212,793331623,imu1_frame,-1.293e-05,5.4579999999999996e-05,3.336e-05,"(0.0, 0.0, 0.0, 0.0, 0.0, 0.0, 0.0, 0.0, 0.0)","$VNYMR,+134.936,-007.176,-000.353,-00.1293,+00.5458,+00.3336,-01.298,+00.057,-09.872,+00.000210,-00.000045,+00.000368*6D"
1711824212.8488727,190,1711824212,841438531,imu1_frame,190,1711824212,841438531,imu1_frame,0.41165078,-0.19073115,0.87954187,0.14342722,"(0.0, 0.0, 0.0, 0.0, 0.0, 0.0, 0.0, 0.0, 0.0)",-0.000571,-0.000697,-0.000121,"(0.0, 0.0, 0.0, 0.0, 0.0, 0.0, 0.0, 0.0, 0.0)",-1.299,0.039,-9.831,"(0.0, 0.0, 0.0, 0.0, 0.0, 0.0, 0.0, 0.0, 0.0)",190,1711824212,841438531,imu1_frame,-1.2839999999999999e-05,5.389000000000001e-05,3.21e-05,"(0.0, 0.0, 0.0, 0.0, 0.0, 0.0, 0.0, 0.0, 0.0)","$VNYMR,+134.936,-007.176,-000.354,-00.1284,+00.5389,+00.3210,-01.299,+00.039,-09.831,-00.000571,-00.000697,-00.000121*6A"
1711824212.9017317,191,1711824212,893323183,imu1_frame,191,1711824212,893323183,imu1_frame,0.41181754,-0.19008547,0.87970862,0.14278154,"(0.0, 0.0, 0.0, 0.0, 0.0, 0.0, 0.0, 0.0, 0.0)",0.000457,-0.0013,0.000499,"(0.0, 0.0, 0.0, 0.0, 0.0, 0.0, 0.0, 0.0, 0.0)",-1.282,0.076,-9.813,"(0.0, 0.0, 0.0, 0.0, 0.0, 0.0, 0.0, 0.0, 0.0)",191,1711824212,893323183,imu1_frame,-1.2920000000000002e-05,5.4930000000000004e-05,3.272e-05,"(0.0, 0.0, 0.0, 0.0, 0.0, 0.0, 0.0, 0.0, 0.0)","$VNYMR,+134.937,-007.176,-000.353,-00.1292,+00.5493,+00.3272,-01.282,+00.076,-09.813,+00.000457,-00.001300,+00.000499*6B"
1711824212.9468486,192,1711824212,941348552,imu1_frame,192,1711824212,941348552,imu1_frame,0.41146689,-0.18988393,0.87999766,0.14227866,"(0.0, 0.0, 0.0, 0.0, 0.0, 0.0, 0.0, 0.0, 0.0)",8.8e-05,-0.000434,0.000496,"(0.0, 0.0, 0.0, 0.0, 0.0, 0.0, 0.0, 0.0, 0.0)",-1.209,0.077,-9.827,"(0.0, 0.0, 0.0, 0.0, 0.0, 0.0, 0.0, 0.0, 0.0)",192,1711824212,941348552,imu1_frame,-1.273e-05,5.4120000000000004e-05,3.312e-05,"(0.0, 0.0, 0.0, 0.0, 0.0, 0.0, 0.0, 0.0, 0.0)","$VNYMR,+134.938,-007.175,-000.353,-00.1273,+00.5412,+00.3312,-01.209,+00.077,-09.827,+00.000088,-00.000434,+00.000496*6B"
1711824212.998059,193,1711824212,993773460,imu1_frame,193,1711824212,993773460,imu1_frame,0.41102115,-0.18988828,0.88021519,0.14221561,"(0.0, 0.0, 0.0, 0.0, 0.0, 0.0, 0.0, 0.0, 0.0)",-0.000857,-0.00187,0.000429,"(0.0, 0.0, 0.0, 0.0, 0.0, 0.0, 0.0, 0.0, 0.0)",-1.165,0.052,-9.743,"(0.0, 0.0, 0.0, 0.0, 0.0, 0.0, 0.0, 0.0, 0.0)",193,1711824212,993773460,imu1_frame,-1.2920000000000002e-05,5.504e-05,3.2340000000000005e-05,"(0.0, 0.0, 0.0, 0.0, 0.0, 0.0, 0.0, 0.0, 0.0)","$VNYMR,+134.938,-007.174,-000.353,-00.1292,+00.5504,+00.3234,-01.165,+00.052,-09.743,-00.000857,-00.001870,+00.000429*60"
1711824213.055744,194,1711824213,49233198,imu1_frame,194,1711824213,49233198,imu1_frame,0.41184131,-0.1903194,0.87968485,0.1425476,"(0.0, 0.0, 0.0, 0.0, 0.0, 0.0, 0.0, 0.0, 0.0)",-0.00019,-0.00026,-3.5e-05,"(0.0, 0.0, 0.0, 0.0, 0.0, 0.0, 0.0, 0.0, 0.0)",-1.167,0.021,-9.742,"(0.0, 0.0, 0.0, 0.0, 0.0, 0.0, 0.0, 0.0, 0.0)",194,1711824213,49233198,imu1_frame,-1.261e-05,5.457e-05,3.273e-05,"(0.0, 0.0, 0.0, 0.0, 0.0, 0.0, 0.0, 0.0, 0.0)","$VNYMR,+134.938,-007.176,-000.354,-00.1261,+00.5457,+00.3273,-01.167,+00.021,-09.742,-00.000190,-00.000260,-00.000035*6D"
1711824213.1009085,195,1711824213,89373350,imu1_frame,195,1711824213,89373350,imu1_frame,0.41329663,-0.19033189,0.87907753,0.14206465,"(0.0, 0.0, 0.0, 0.0, 0.0, 0.0, 0.0, 0.0, 0.0)",-0.000681,-0.001127,0.000985,"(0.0, 0.0, 0.0, 0.0, 0.0, 0.0, 0.0, 0.0, 0.0)",-1.17,0.044,-9.791,"(0.0, 0.0, 0.0, 0.0, 0.0, 0.0, 0.0, 0.0, 0.0)",195,1711824213,89373350,imu1_frame,-1.2590000000000001e-05,5.526e-05,3.2340000000000005e-05,"(0.0, 0.0, 0.0, 0.0, 0.0, 0.0, 0.0, 0.0, 0.0)","$VNYMR,+134.940,-007.179,-000.355,-00.1259,+00.5526,+00.3234,-01.170,+00.044,-09.791,-00.000681,-00.001127,+00.000985*6A"
1711824213.1500993,196,1711824213,145904779,imu1_frame,196,1711824213,145904779,imu1_frame,0.41374179,-0.19032665,0.87885897,0.14212818,"(0.0, 0.0, 0.0, 0.0, 0.0, 0.0, 0.0, 0.0, 0.0)",-0.000169,-5.4e-05,0.000125,"(0.0, 0.0, 0.0, 0.0, 0.0, 0.0, 0.0, 0.0, 0.0)",-1.207,0.084,-9.867,"(0.0, 0.0, 0.0, 0.0, 0.0, 0.0, 0.0, 0.0, 0.0)",196,1711824213,145904779,imu1_frame,-1.273e-05,5.423e-05,3.286e-05,"(0.0, 0.0, 0.0, 0.0, 0.0, 0.0, 0.0, 0.0, 0.0)","$VNYMR,+134.940,-007.180,-000.355,-00.1273,+00.5423,+00.3286,-01.207,+00.084,-09.867,-00.000169,-00.000054,+00.000125*67"
1711824213.1969593,197,1711824213,189323186,imu1_frame,197,1711824213,189323186,imu1_frame,0.41390769,-0.18968026,0.87902487,0.14148179,"(0.0, 0.0, 0.0, 0.0, 0.0, 0.0, 0.0, 0.0, 0.0)",-6.8e-05,0.000525,0.001084,"(0.0, 0.0, 0.0, 0.0, 0.0, 0.0, 0.0, 0.0, 0.0)",-1.263,0.081,-9.861,"(0.0, 0.0, 0.0, 0.0, 0.0, 0.0, 0.0, 0.0, 0.0)",197,1711824213,189323186,imu1_frame,-1.25e-05,5.491000000000001e-05,3.235e-05,"(0.0, 0.0, 0.0, 0.0, 0.0, 0.0, 0.0, 0.0, 0.0)","$VNYMR,+134.941,-007.180,-000.354,-00.1250,+00.5491,+00.3235,-01.263,+00.081,-09.861,-00.000068,+00.000525,+00.001084*68"
1711824213.2537181,198,1711824213,245296955,imu1_frame,198,1711824213,245296955,imu1_frame,0.413766,-0.19055919,0.87883475,0.14189563,"(0.0, 0.0, 0.0, 0.0, 0.0, 0.0, 0.0, 0.0, 0.0)",-0.001469,0.000593,0.000753,"(0.0, 0.0, 0.0, 0.0, 0.0, 0.0, 0.0, 0.0, 0.0)",-1.29,0.069,-9.876,"(0.0, 0.0, 0.0, 0.0, 0.0, 0.0, 0.0, 0.0, 0.0)",198,1711824213,245296955,imu1_frame,-1.271e-05,5.492e-05,3.323e-05,"(0.0, 0.0, 0.0, 0.0, 0.0, 0.0, 0.0, 0.0, 0.0)","$VNYMR,+134.941,-007.180,-000.356,-00.1271,+00.5492,+00.3323,-01.290,+00.069,-09.876,-00.001469,+00.000593,+00.000753*65"
1711824213.3008814,199,1711824213,289275646,imu1_frame,199,1711824213,289275646,imu1_frame,0.41367067,-0.19076605,0.87876369,0.14233503,"(0.0, 0.0, 0.0, 0.0, 0.0, 0.0, 0.0, 0.0, 0.0)",0.000106,-0.000122,-0.000371,"(0.0, 0.0, 0.0, 0.0, 0.0, 0.0, 0.0, 0.0, 0.0)",-1.267,0.092,-9.882,"(0.0, 0.0, 0.0, 0.0, 0.0, 0.0, 0.0, 0.0, 0.0)",199,1711824213,289275646,imu1_frame,-1.24e-05,5.468e-05,3.287e-05,"(0.0, 0.0, 0.0, 0.0, 0.0, 0.0, 0.0, 0.0, 0.0)","$VNYMR,+134.940,-007.180,-000.356,-00.1240,+00.5468,+00.3287,-01.267,+00.092,-09.882,+00.000106,-00.000122,-00.000371*6A"
1711824213.3481574,200,1711824213,341296911,imu1_frame,200,1711824213,341296911,imu1_frame,0.4138369,-0.19011975,0.87892992,0.14168873,"(0.0, 0.0, 0.0, 0.0, 0.0, 0.0, 0.0, 0.0, 0.0)",0.00122,-0.000261,-0.000355,"(0.0, 0.0, 0.0, 0.0, 0.0, 0.0, 0.0, 0.0, 0.0)",-1.266,0.064,-9.853,"(0.0, 0.0, 0.0, 0.0, 0.0, 0.0, 0.0, 0.0, 0.0)",200,1711824213,341296911,imu1_frame,-1.293e-05,5.4579999999999996e-05,3.2850000000000006e-05,"(0.0, 0.0, 0.0, 0.0, 0.0, 0.0, 0.0, 0.0, 0.0)","$VNYMR,+134.941,-007.180,-000.355,-00.1293,+00.5458,+00.3285,-01.266,+00.064,-09.853,+00.001220,-00.000261,-00.000355*67"
1711824213.4006398,201,1711824213,393417358,imu1_frame,201,1711824213,393417358,imu1_frame,0.41346251,-0.18968562,0.8792434,0.14141838,"(0.0, 0.0, 0.0, 0.0, 0.0, 0.0, 0.0, 0.0, 0.0)",-0.000579,0.001591,0.000523,"(0.0, 0.0, 0.0, 0.0, 0.0, 0.0, 0.0, 0.0, 0.0)",-1.253,0.012,-9.85,"(0.0, 0.0, 0.0, 0.0, 0.0, 0.0, 0.0, 0.0, 0.0)",201,1711824213,393417358,imu1_frame,-1.2600000000000001e-05,5.4800000000000004e-05,3.235e-05,"(0.0, 0.0, 0.0, 0.0, 0.0, 0.0, 0.0, 0.0, 0.0)","$VNYMR,+134.941,-007.179,-000.354,-00.1260,+00.5480,+00.3235,-01.253,+00.012,-09.850,-00.000579,+00.001591,+00.000523*64"
1711824213.4478,202,1711824213,441419839,imu1_frame,202,1711824213,441419839,imu1_frame,0.41390769,-0.18968026,0.87902487,0.14148179,"(0.0, 0.0, 0.0, 0.0, 0.0, 0.0, 0.0, 0.0, 0.0)",-0.001354,-0.001088,-0.00087,"(0.0, 0.0, 0.0, 0.0, 0.0, 0.0, 0.0, 0.0, 0.0)",-1.266,0.018,-9.866,"(0.0, 0.0, 0.0, 0.0, 0.0, 0.0, 0.0, 0.0, 0.0)",202,1711824213,441419839,imu1_frame,-1.294e-05,5.424e-05,3.273e-05,"(0.0, 0.0, 0.0, 0.0, 0.0, 0.0, 0.0, 0.0, 0.0)","$VNYMR,+134.941,-007.180,-000.354,-00.1294,+00.5424,+00.3273,-01.266,+00.018,-09.866,-00.001354,-00.001088,-00.000870*62"
1711824213.5044363,203,1711824213,497408628,imu1_frame,203,1711824213,497408628,imu1_frame,0.41352813,-0.19164472,0.87857249,0.14274863,"(0.0, 0.0, 0.0, 0.0, 0.0, 0.0, 0.0, 0.0, 0.0)",-0.001168,-0.000835,-0.000319,"(0.0, 0.0, 0.0, 0.0, 0.0, 0.0, 0.0, 0.0, 0.0)",-1.296,0.075,-9.813,"(0.0, 0.0, 0.0, 0.0, 0.0, 0.0, 0.0, 0.0, 0.0)",203,1711824213,497408628,imu1_frame,-1.283e-05,5.4120000000000004e-05,3.273e-05,"(0.0, 0.0, 0.0, 0.0, 0.0, 0.0, 0.0, 0.0, 0.0)","$VNYMR,+134.940,-007.180,-000.358,-00.1283,+00.5412,+00.3273,-01.296,+00.075,-09.813,-00.001168,-00.000835,-00.000319*6C"
1711824213.5529227,204,1711824213,545595169,imu1_frame,204,1711824213,545595169,imu1_frame,0.41251994,-0.19276789,0.87879241,0.14279962,"(0.0, 0.0, 0.0, 0.0, 0.0, 0.0, 0.0, 0.0, 0.0)",-0.000332,-0.001079,0.000672,"(0.0, 0.0, 0.0, 0.0, 0.0, 0.0, 0.0, 0.0, 0.0)",-1.204,0.056,-9.851,"(0.0, 0.0, 0.0, 0.0, 0.0, 0.0, 0.0, 0.0, 0.0)",204,1711824213,545595169,imu1_frame,-1.281e-05,5.504e-05,3.298e-05,"(0.0, 0.0, 0.0, 0.0, 0.0, 0.0, 0.0, 0.0, 0.0)","$VNYMR,+134.941,-007.178,-000.361,-00.1281,+00.5504,+00.3298,-01.204,+00.056,-09.851,-00.000332,-00.001079,+00.000672*6E"
1711824213.600921,205,1711824213,589399337,imu1_frame,205,1711824213,589399337,imu1_frame,0.41214609,-0.19233439,0.87910677,0.14252852,"(0.0, 0.0, 0.0, 0.0, 0.0, 0.0, 0.0, 0.0, 0.0)",0.001584,-0.000631,-0.000851,"(0.0, 0.0, 0.0, 0.0, 0.0, 0.0, 0.0, 0.0, 0.0)",-1.257,0.099,-9.8,"(0.0, 0.0, 0.0, 0.0, 0.0, 0.0, 0.0, 0.0, 0.0)",205,1711824213,589399337,imu1_frame,-1.261e-05,5.457e-05,3.286e-05,"(0.0, 0.0, 0.0, 0.0, 0.0, 0.0, 0.0, 0.0, 0.0)","$VNYMR,+134.941,-007.177,-000.360,-00.1261,+00.5457,+00.3286,-01.257,+00.099,-09.800,+00.001584,-00.000631,-00.000851*69"
1711824213.651957,206,1711824213,643267869,imu1_frame,206,1711824213,643267869,imu1_frame,0.4116295,-0.1927799,0.87922834,0.14266949,"(0.0, 0.0, 0.0, 0.0, 0.0, 0.0, 0.0, 0.0, 0.0)",0.000968,-0.001265,-0.001344,"(0.0, 0.0, 0.0, 0.0, 0.0, 0.0, 0.0, 0.0, 0.0)",-1.2,0.046,-9.792,"(0.0, 0.0, 0.0, 0.0, 0.0, 0.0, 0.0, 0.0, 0.0)",206,1711824213,643267869,imu1_frame,-1.273e-05,5.423e-05,3.312e-05,"(0.0, 0.0, 0.0, 0.0, 0.0, 0.0, 0.0, 0.0, 0.0)","$VNYMR,+134.941,-007.176,-000.361,-00.1273,+00.5423,+00.3312,-01.200,+00.046,-09.792,+00.000968,-00.001265,-00.001344*64"
1711824213.698192,207,1711824213,689404249,imu1_frame,207,1711824213,689404249,imu1_frame,0.41282935,-0.19124309,0.87915156,0.14174112,"(0.0, 0.0, 0.0, 0.0, 0.0, 0.0, 0.0, 0.0, 0.0)",0.000779,0.000472,0.001904,"(0.0, 0.0, 0.0, 0.0, 0.0, 0.0, 0.0, 0.0, 0.0)",-1.163,0.03,-9.791,"(0.0, 0.0, 0.0, 0.0, 0.0, 0.0, 0.0, 0.0, 0.0)",207,1711824213,689404249,imu1_frame,-1.3039999999999999e-05,5.424e-05,3.298e-05,"(0.0, 0.0, 0.0, 0.0, 0.0, 0.0, 0.0, 0.0, 0.0)","$VNYMR,+134.942,-007.178,-000.358,-00.1304,+00.5424,+00.3298,-01.163,+00.030,-09.791,+00.000779,+00.000472,+00.001904*63"
